ax,ay,az,gx,gy,gz,mx,my,mz,target,DateRecord,TimeRecord
-0.37,2.21,9.38,0.007636,0.014181,-0.004363,21.5,-27.25,2.5,0,2024-11-14,11:02:48.459139
-0.33,2.19,9.4,0.0,-0.018544,0.003272,23.0,-26.875,2.5,0,2024-11-14,11:02:48.664089
-0.33,2.16,9.43,0.001091,-0.019635,0.004363,21.5,-27.25,1.75,0,2024-11-14,11:02:48.866973
-0.31,2.19,9.43,0.0,-0.008727,0.0,21.875,-25.75,1.75,0,2024-11-14,11:02:49.066373
-0.26,2.19,9.38,-0.001091,0.023998,-0.003272,21.875,-26.875,1.25,0,2024-11-14,11:02:49.252266
-0.39,2.22,9.41,0.020726,0.076358,-0.021817,21.875,-25.75,2.0625,0,2024-11-14,11:02:49.436161
-0.42,2.16,9.38,-0.001091,0.020726,-0.002182,21.5,-27.25,1.0,0,2024-11-14,11:02:49.637254
-0.47,2.24,9.44,0.006545,0.014181,-0.008727,22.25,-26.875,2.0625,0,2024-11-14,11:02:49.889457
-0.5,2.2,9.42,0.011999,0.051269,-0.015272,21.875,-26.1875,3.0,0,2024-11-14,11:02:50.045724
-0.7,2.19,9.36,-0.008727,-0.005454,-0.003272,21.5,-26.5625,3.25,0,2024-11-14,11:02:50.278171
-0.76,2.27,9.37,-0.001091,-0.01309,0.002182,22.25,-26.1875,2.0625,0,2024-11-14,11:02:50.544602
-0.64,2.27,9.43,0.007636,0.017453,-0.007636,22.25,-26.875,1.75,0,2024-11-14,11:02:50.763624
-0.62,2.27,9.48,-0.006545,0.007636,0.0,21.1875,-26.5625,2.875,0,2024-11-14,11:02:50.996492
-0.73,2.32,9.44,-0.019635,-0.069813,0.023998,21.5,-26.1875,2.5,0,2024-11-14,11:02:51.182854
-0.64,2.21,9.38,-0.008727,-0.041452,0.011999,21.1875,-25.5,2.5,0,2024-11-14,11:02:51.369946
-0.34,2.26,9.55,-0.010908,-0.049087,0.016362,21.5,-26.875,3.0,0,2024-11-14,11:02:51.626184
-0.41,2.22,9.44,-0.002182,-0.057814,0.017453,22.25,-26.1875,1.75,0,2024-11-14,11:02:51.720136
-0.35,2.22,9.38,-0.006545,-0.054542,0.014181,21.875,-26.5625,1.75,0,2024-11-14,11:02:51.832070
-0.3,2.19,9.38,-0.009817,-0.081812,0.022907,21.875,-26.875,2.0625,0,2024-11-14,11:02:52.034904
-0.27,2.23,9.44,0.003272,0.021817,-0.002182,21.875,-26.5625,1.75,0,2024-11-14,11:02:52.217884
-0.31,2.24,9.42,0.009817,0.070904,-0.016362,21.5,-26.1875,2.5,0,2024-11-14,11:02:52.452750
-0.39,2.23,9.44,0.001091,-0.007636,-0.001091,22.5625,-26.5625,1.75,0,2024-11-14,11:02:52.654043
-0.45,2.25,9.48,0.001091,0.010908,-0.003272,22.25,-26.1875,0.5625,0,2024-11-14,11:02:52.874911
-0.52,2.24,9.36,0.007636,0.066541,-0.015272,21.5,-26.1875,2.5,0,2024-11-14,11:02:53.060894
-0.43,2.25,9.49,-0.004363,0.031634,-0.001091,21.875,-26.875,2.0625,0,2024-11-14,11:02:53.217879
-0.67,2.26,9.43,0.008727,0.0,0.004363,22.5625,-26.1875,3.0,0,2024-11-14,11:02:53.483108
-0.7,2.25,9.38,0.002182,-0.029452,0.004363,21.875,-26.5625,2.5,0,2024-11-14,11:02:53.747527
-0.63,2.24,9.44,0.003272,0.0,-0.005454,21.875,-26.1875,3.0,0,2024-11-14,11:02:53.981401
-0.64,2.27,9.49,0.002182,-0.011999,-0.001091,21.875,-26.875,3.25,0,2024-11-14,11:02:54.168301
-0.68,2.29,9.35,-0.021817,-0.061087,0.018544,21.875,-26.1875,2.5,0,2024-11-14,11:02:54.399746
-0.6,2.29,9.42,-0.007636,-0.045815,0.014181,21.875,-25.75,1.75,0,2024-11-14,11:02:54.682696
-0.42,2.26,9.53,-0.011999,-0.057814,0.018544,21.5,-25.75,1.75,0,2024-11-14,11:02:54.914146
-0.4,2.27,9.46,-0.002182,-0.031634,0.008727,21.875,-26.5625,2.0625,0,2024-11-14,11:02:55.082123
-0.38,2.27,9.41,0.0,-0.004363,0.001091,21.5,-25.75,2.5,0,2024-11-14,11:02:55.129096
-0.29,2.22,9.45,-0.006545,-0.035997,0.007636,21.5,-27.25,2.5,0,2024-11-14,11:02:55.335190
-0.45,2.29,9.43,0.001091,0.046906,-0.009817,21.875,-26.875,2.5,0,2024-11-14,11:02:55.520227
-0.41,2.3,9.43,0.009817,0.023998,-0.004363,21.875,-26.875,1.75,0,2024-11-14,11:02:55.692108
-0.35,2.24,9.52,0.003272,0.011999,-0.005454,22.25,-26.1875,3.0,0,2024-11-14,11:02:56.004017
-0.45,2.33,9.48,0.003272,0.031634,-0.007636,21.875,-26.1875,1.75,0,2024-11-14,11:02:56.205887
-0.57,2.23,9.42,0.008727,0.035997,-0.017453,21.875,-26.5625,3.6875,0,2024-11-14,11:02:56.393219
-0.58,2.33,9.37,0.010908,0.038179,-0.006545,21.875,-26.5625,3.25,0,2024-11-14,11:02:56.644084
-1.01,2.31,9.4,0.021817,0.085085,-0.017453,21.875,-26.875,3.6875,0,2024-11-14,11:02:56.816467
-0.8,2.31,9.38,0.004363,-0.002182,-0.001091,21.875,-26.5625,2.875,0,2024-11-14,11:02:57.050852
-0.66,2.27,9.36,0.002182,-0.006545,0.003272,21.875,-26.1875,3.6875,0,2024-11-14,11:02:57.050852
-0.71,2.29,9.36,-0.002182,-0.001091,0.003272,22.5625,-27.25,2.5,0,2024-11-14,11:02:57.221755
-0.69,2.29,9.38,0.0,-0.023998,0.003272,22.25,-26.875,3.0,0,2024-11-14,11:02:57.470207
-0.6,2.37,9.43,0.003272,0.019635,-0.010908,21.5,-26.875,2.875,0,2024-11-14,11:02:57.638586
-0.51,2.26,9.5,-0.034907,-0.106901,0.033816,21.875,-26.1875,2.0625,0,2024-11-14,11:02:57.924335
-0.52,2.29,9.44,-0.011999,-0.02618,0.011999,21.5,-26.5625,3.0,0,2024-11-14,11:02:58.174192
-0.4,2.28,9.52,-0.002182,-0.007636,0.002182,21.875,-26.5625,1.75,0,2024-11-14,11:02:58.376431
-0.5,2.29,9.44,0.005454,0.016362,-0.003272,21.1875,-26.1875,2.0625,0,2024-11-14,11:02:58.563350
-0.51,2.3,9.39,0.001091,0.020726,-0.005454,21.5,-26.1875,2.0625,0,2024-11-14,11:02:58.799285
-0.52,2.27,9.39,-0.005454,-0.046906,0.014181,21.875,-26.1875,3.25,0,2024-11-14,11:02:58.952227
-0.5,2.3,9.43,-0.004363,-0.028362,0.004363,21.875,-26.1875,2.0625,0,2024-11-14,11:02:59.312016
-0.53,2.29,9.39,-0.001091,0.007636,0.0,22.25,-26.1875,2.0625,0,2024-11-14,11:02:59.483299
-0.46,2.28,9.46,0.0,-0.011999,0.005454,21.5,-26.1875,2.0625,0,2024-11-14,11:02:59.667173
-0.51,2.29,9.39,0.0,0.004363,0.001091,21.5,-26.5625,2.5,0,2024-11-14,11:02:59.692361
-0.51,2.29,9.42,0.0,-0.003272,-0.001091,21.1875,-26.875,2.5,0,2024-11-14,11:02:59.910645
-0.53,2.28,9.33,0.0,0.025089,-0.003272,21.5,-25.75,2.0625,0,2024-11-14,11:03:00.094297
-0.46,2.26,9.49,-0.007636,-0.077449,0.017453,21.5,-26.1875,2.0625,0,2024-11-14,11:03:00.295183
-0.48,2.29,9.45,-0.006545,-0.017453,0.006545,21.5,-26.875,2.5,0,2024-11-14,11:03:00.514131
-0.56,2.28,9.38,-0.001091,0.008727,0.0,21.875,-26.1875,2.0625,0,2024-11-14,11:03:00.798401
-0.47,2.27,9.46,0.0,-0.009817,0.001091,22.5625,-26.875,2.875,0,2024-11-14,11:03:01.153438
-0.5,2.29,9.41,0.0,-0.001091,0.001091,22.5625,-26.1875,2.0625,0,2024-11-14,11:03:01.437716
-0.53,2.29,9.41,0.0,-0.001091,-0.001091,22.25,-27.25,1.75,0,2024-11-14,11:03:01.668564
-0.53,2.27,9.36,0.002182,0.002182,0.0,22.25,-26.875,2.5,0,2024-11-14,11:03:01.683557
-0.39,2.3,9.55,-0.010908,-0.075267,0.019635,21.875,-26.1875,3.0,0,2024-11-14,11:03:01.807505
-0.45,2.26,9.41,0.0,-0.006545,0.003272,22.5625,-26.1875,2.5,0,2024-11-14,11:03:02.145391
-0.52,2.27,9.39,0.0,0.004363,-0.004363,21.1875,-26.875,2.0625,0,2024-11-14,11:03:02.377266
-0.44,2.27,9.44,0.0,-0.003272,-0.001091,21.5,-26.875,2.875,0,2024-11-14,11:03:02.424679
-0.49,2.25,9.41,0.003272,0.0,-0.002182,21.875,-26.1875,2.5,0,2024-11-14,11:03:02.552589
-0.49,2.3,9.44,0.0,0.009817,0.0,21.875,-26.875,2.875,0,2024-11-14,11:03:02.770120
-0.5,2.28,9.39,0.003272,0.020726,-0.004363,21.5,-26.5625,1.75,0,2024-11-14,11:03:03.161502
-0.5,2.28,9.41,-0.007636,-0.068722,0.018544,21.1875,-27.25,2.0625,0,2024-11-14,11:03:03.350408
-0.46,2.29,9.44,-0.003272,-0.018544,0.005454,22.5625,-26.1875,1.75,0,2024-11-14,11:03:03.427348
-0.51,2.29,9.41,0.001091,0.004363,0.002182,22.25,-26.1875,2.875,0,2024-11-14,11:03:03.963240
-0.43,2.29,9.45,0.002182,-0.004363,0.002182,21.5,-26.5625,2.5,0,2024-11-14,11:03:05.453492
-0.47,2.29,9.42,-0.001091,-0.003272,0.001091,21.875,-26.5625,1.25,0,2024-11-14,11:03:05.640053
-0.44,2.28,9.44,-0.001091,-0.002182,0.0,22.25,-26.5625,1.75,0,2024-11-14,11:03:05.702020
-0.46,2.31,9.48,-0.001091,-0.020726,0.002182,21.875,-27.25,2.0625,0,2024-11-14,11:03:05.748993
-0.4,2.27,9.49,-0.001091,-0.002182,0.002182,21.875,-26.1875,3.25,0,2024-11-14,11:03:05.748993
-0.36,2.3,9.57,-0.008727,-0.020726,0.003272,21.1875,-26.5625,1.75,0,2024-11-14,11:03:05.780976
-0.51,2.27,9.39,0.001091,0.004363,-0.001091,21.5,-26.5625,2.0625,0,2024-11-14,11:03:05.828969
-0.45,2.25,9.44,-0.002182,0.017453,-0.003272,22.25,-26.1875,2.5,0,2024-11-14,11:03:05.844938
-0.47,2.29,9.45,0.0,0.002182,-0.001091,21.5,-27.25,1.75,0,2024-11-14,11:03:05.861033
-0.49,2.29,9.42,0.001091,0.003272,0.0,22.5625,-26.875,2.0625,0,2024-11-14,11:03:05.892003
-0.42,2.31,9.4,-0.015272,-0.021817,0.005454,21.5,-26.875,2.875,0,2024-11-14,11:03:05.907993
-0.51,2.29,9.4,-0.002182,-0.009817,0.003272,21.875,-26.1875,1.75,0,2024-11-14,11:03:06.158753
-0.41,2.29,9.48,-0.005454,-0.016362,0.005454,22.25,-26.5625,1.75,0,2024-11-14,11:03:06.280687
-0.45,2.28,9.41,0.001091,0.006545,-0.001091,21.5,-26.875,2.875,0,2024-11-14,11:03:06.450573
-0.46,2.29,9.41,0.001091,0.001091,-0.001091,21.875,-26.5625,1.25,0,2024-11-14,11:03:06.669823
-0.46,2.28,9.44,0.001091,-0.002182,0.001091,21.875,-27.25,1.75,0,2024-11-14,11:03:06.855658
-0.45,2.29,9.43,0.002182,-0.009817,0.003272,21.875,-26.875,2.0625,0,2024-11-14,11:03:07.055431
-0.34,2.3,9.53,-0.005454,-0.020726,0.006545,21.875,-26.5625,3.0,0,2024-11-14,11:03:09.128942
-0.38,2.3,9.44,-0.001091,-0.017453,0.005454,21.5,-26.5625,1.75,0,2024-11-14,11:03:09.159736
-0.48,2.29,9.38,0.0,0.017453,-0.003272,21.5,-26.5625,1.25,0,2024-11-14,11:03:09.159736
-0.41,2.3,9.43,0.0,0.008727,-0.003272,21.5,-26.1875,1.75,0,2024-11-14,11:03:09.159736
-0.44,2.29,9.42,0.002182,0.017453,-0.002182,21.875,-26.875,2.5,0,2024-11-14,11:03:09.223204
-0.44,2.32,9.51,0.006545,-0.017453,0.001091,21.5,-26.5625,2.875,0,2024-11-14,11:03:09.239193
-0.46,2.29,9.48,0.008727,0.044724,-0.009817,22.25,-26.5625,2.5,0,2024-11-14,11:03:09.255201
-0.58,2.3,9.42,0.005454,0.020726,-0.008727,23.0,-26.5625,2.0625,0,2024-11-14,11:03:09.271176
-0.58,2.3,9.4,-0.007636,-0.027271,0.003272,22.25,-25.75,2.5,0,2024-11-14,11:03:09.271176
-0.52,2.28,9.42,-0.005454,-0.015272,0.004363,21.875,-26.875,2.0625,0,2024-11-14,11:03:09.301192
-0.45,2.29,9.42,-0.007636,-0.030543,0.009817,21.875,-26.5625,2.5,0,2024-11-14,11:03:09.302193
-0.4,2.3,9.39,0.002182,-0.029452,0.008727,22.5625,-26.5625,2.5,0,2024-11-14,11:03:09.425119
-0.28,2.3,9.57,-0.005454,-0.053451,0.015272,22.25,-26.1875,3.6875,0,2024-11-14,11:03:09.654319
-0.37,2.3,9.4,0.004363,0.041452,-0.005454,22.25,-26.1875,2.0625,0,2024-11-14,11:03:09.840369
-0.4,2.26,9.44,0.0,0.014181,0.001091,22.25,-26.1875,2.0625,0,2024-11-14,11:03:10.090209
-0.4,2.29,9.4,0.002182,0.008727,-0.002182,21.5,-26.1875,1.75,0,2024-11-14,11:03:10.216281
-0.36,2.29,9.42,-0.003272,-0.019635,0.004363,21.5,-26.5625,2.875,0,2024-11-14,11:03:11.475390
-0.32,2.3,9.42,-0.001091,-0.055632,0.011999,21.875,-26.5625,2.5,0,2024-11-14,11:03:11.707616
-0.31,2.28,9.44,-0.007636,-0.005454,0.0,21.5,-26.875,1.25,0,2024-11-14,11:03:11.771560
-0.35,2.21,9.3,0.0,0.02618,-0.006545,22.25,-26.1875,1.75,0,2024-11-14,11:03:11.772560
-0.41,2.32,9.42,0.007636,0.011999,-0.007636,22.5625,-26.875,2.0625,0,2024-11-14,11:03:11.772560
-0.32,2.3,9.53,0.003272,0.019635,-0.002182,21.5,-26.5625,3.0,0,2024-11-14,11:03:11.803544
-0.49,2.3,9.38,0.004363,0.055632,-0.015272,21.875,-26.5625,2.5,0,2024-11-14,11:03:11.867505
-0.57,2.3,9.36,0.002182,0.021817,-0.004363,21.875,-26.5625,2.5,0,2024-11-14,11:03:11.913478
-0.53,2.3,9.4,0.0,-0.02618,0.004363,21.5,-26.875,3.6875,0,2024-11-14,11:03:12.053397
-0.56,2.3,9.37,-0.001091,0.030543,-0.005454,21.875,-26.1875,2.0625,0,2024-11-14,11:03:12.304099
-0.57,2.26,9.29,-0.015272,-0.014181,0.010908,21.875,-26.1875,3.0,0,2024-11-14,11:03:12.517976
-0.5,2.3,9.41,-0.006545,-0.03927,0.011999,21.875,-25.75,1.75,0,2024-11-14,11:03:12.735952
-0.38,2.29,9.48,-0.016362,-0.02618,0.010908,22.25,-26.5625,2.5,0,2024-11-14,11:03:12.783925
-0.36,2.26,9.45,0.0,-0.029452,0.009817,21.5,-26.875,2.5,0,2024-11-14,11:03:12.943383
-0.29,2.24,9.45,-0.008727,-0.029452,0.01309,21.5,-26.5625,2.5,0,2024-11-14,11:03:13.115283
-0.31,2.27,9.44,0.006545,0.025089,-0.007636,21.875,-26.875,2.0625,0,2024-11-14,11:03:13.331633
-0.42,2.25,9.42,0.006545,0.032725,-0.003272,21.875,-26.875,1.25,0,2024-11-14,11:03:13.536524
-0.37,2.23,9.43,-0.003272,-0.009817,0.0,22.25,-26.5625,2.5,0,2024-11-14,11:03:13.785715
-0.56,2.28,9.41,-0.001091,0.041452,-0.01309,21.5,-25.75,2.5,0,2024-11-14,11:03:14.019600
-0.74,2.45,9.32,0.005454,0.126536,-0.037088,22.5625,-26.875,3.6875,0,2024-11-14,11:03:14.236008
-0.69,2.27,9.36,0.0,-0.031634,0.0,22.25,-26.5625,2.5,0,2024-11-14,11:03:14.345394
-0.74,2.28,9.33,0.017453,0.006545,0.005454,21.875,-26.875,3.6875,0,2024-11-14,11:03:14.578265
-0.61,2.34,9.41,0.007636,-0.005454,-0.011999,22.25,-26.1875,3.25,0,2024-11-14,11:03:14.764138
-0.54,2.27,9.45,-0.007636,-0.067632,0.035997,21.5,-26.1875,3.25,0,2024-11-14,11:03:14.952325
-0.61,2.3,9.36,0.005454,-0.081812,0.021817,22.5625,-26.5625,3.25,0,2024-11-14,11:03:15.279484
-0.47,2.49,9.43,0.011999,-0.023998,0.008727,21.5,-26.1875,3.25,0,2024-11-14,11:03:15.447540
-0.13,2.4,9.38,0.0,0.009817,-0.014181,21.875,-27.25,1.75,0,2024-11-14,11:03:15.692532
-0.42,2.24,9.48,-0.003272,0.007636,-0.005454,22.5625,-26.1875,1.75,0,2024-11-14,11:03:15.884877
-0.47,2.3,9.39,0.011999,0.025089,-0.01309,21.5,-27.25,2.0625,0,2024-11-14,11:03:16.054788
-0.41,2.31,9.49,0.01309,0.058905,-0.017453,21.875,-26.5625,2.875,0,2024-11-14,11:03:16.341474
-0.56,2.36,9.4,0.010908,0.031634,-0.01309,21.875,-27.25,4.0625,0,2024-11-14,11:03:16.685729
-0.87,2.33,9.31,0.023998,0.147262,-0.040361,22.25,-26.1875,4.0625,0,2024-11-14,11:03:16.884490
-1.01,2.4,9.34,0.015272,0.088357,-0.021817,21.5,-26.5625,4.875,0,2024-11-14,11:03:16.946389
-1.05,2.4,9.35,-0.009817,-0.037088,0.009817,22.25,-25.75,3.6875,0,2024-11-14,11:03:17.195090
-1.16,2.42,9.34,-0.016362,-0.094902,0.027271,22.5625,-26.5625,4.0625,0,2024-11-14,11:03:17.429407
-1.08,2.41,9.28,0.002182,0.01309,-0.002182,22.5625,-26.1875,4.5,0,2024-11-14,11:03:17.491373
-0.98,2.38,9.4,0.0,-0.008727,0.0,22.25,-25.75,4.875,0,2024-11-14,11:03:17.601311
-1.05,2.37,9.3,0.001091,0.032725,-0.001091,21.875,-25.5,3.6875,0,2024-11-14,11:03:17.821700
-1.03,2.42,9.34,-0.003272,-0.007636,-0.003272,21.875,-25.5,4.875,0,2024-11-14,11:03:18.025438
-0.97,2.44,9.37,-0.001091,-0.020726,0.0,22.25,-26.1875,4.0625,0,2024-11-14,11:03:18.199385
-0.96,2.37,9.4,0.003272,0.038179,-0.006545,22.25,-26.1875,4.5,0,2024-11-14,11:03:18.668406
-0.93,2.37,9.33,-0.002182,-0.045815,0.008727,22.25,-25.5,4.0625,0,2024-11-14,11:03:18.962824
-0.98,2.36,9.35,-0.003272,-0.018544,0.008727,22.5625,-26.1875,3.6875,0,2024-11-14,11:03:19.071048
-0.87,2.37,9.35,-0.001091,-0.002182,-0.001091,21.5,-26.1875,3.25,0,2024-11-14,11:03:19.133997
-0.89,2.38,9.34,0.0,0.003272,0.002182,22.25,-26.1875,3.6875,0,2024-11-14,11:03:19.133997
-0.9,2.4,9.4,0.0,0.025089,-0.003272,22.25,-25.75,2.5,0,2024-11-14,11:03:19.355893
-1.07,2.42,9.54,0.009817,0.044724,-0.010908,21.5,-26.1875,3.6875,0,2024-11-14,11:03:19.543192
-1.05,2.41,9.32,-0.003272,0.006545,0.001091,22.25,-26.1875,4.5,0,2024-11-14,11:03:19.797080
-0.97,2.38,9.37,-0.002182,-0.022907,0.005454,22.25,-25.75,4.0625,0,2024-11-14,11:03:20.269369
-0.95,2.38,9.36,-0.002182,-0.007636,0.003272,21.5,-26.1875,4.0625,0,2024-11-14,11:03:20.378292
-0.97,2.37,9.35,-0.003272,-0.01309,0.004363,21.875,-25.75,4.0625,0,2024-11-14,11:03:20.582940
-0.89,2.35,9.36,0.0,-0.016362,0.001091,22.25,-26.875,2.0625,0,2024-11-14,11:03:20.644905
-0.89,2.36,9.37,-0.01309,-0.018544,0.004363,21.875,-26.1875,3.6875,0,2024-11-14,11:03:20.819543
-0.72,2.28,9.57,0.009817,0.005454,-0.014181,22.25,-26.875,3.6875,0,2024-11-14,11:03:20.975473
-0.9,2.34,9.36,0.001091,-0.069813,0.006545,22.25,-25.75,3.6875,0,2024-11-14,11:03:21.195207
-0.87,2.38,9.31,0.018544,-0.033816,-0.008727,21.875,-26.5625,3.6875,0,2024-11-14,11:03:21.443612
-0.73,2.42,9.34,0.017453,-0.007636,-0.010908,21.875,-26.1875,3.25,0,2024-11-14,11:03:21.722396
-0.68,2.5,9.41,-0.007636,-0.019635,0.021817,21.875,-26.1875,2.5,0,2024-11-14,11:03:21.926405
-0.73,2.3,9.4,0.001091,-0.002182,-0.009817,21.875,-25.75,2.5,0,2024-11-14,11:03:22.117124
-0.89,2.38,9.25,0.017453,0.093811,-0.011999,22.25,-25.75,3.25,0,2024-11-14,11:03:22.319008
-0.81,2.39,9.32,0.005454,0.02618,-0.003272,22.5625,-25.75,4.5,0,2024-11-14,11:03:22.549898
-0.65,2.44,9.41,-0.003272,-0.01309,0.002182,21.875,-26.1875,2.0625,0,2024-11-14,11:03:22.723803
-0.67,2.37,9.37,0.004363,0.011999,-0.015272,22.25,-26.1875,3.6875,0,2024-11-14,11:03:23.034626
-0.62,2.47,9.36,-0.030543,-0.043633,0.034907,22.5625,-25.75,3.25,0,2024-11-14,11:03:23.253199
-0.72,2.3,9.33,0.003272,0.100356,-0.032725,22.25,-26.5625,2.5,0,2024-11-14,11:03:23.427208
-0.84,2.37,9.34,-0.007636,0.070904,0.001091,22.5625,-26.5625,3.6875,0,2024-11-14,11:03:23.489147
-0.84,2.24,9.32,-0.007636,-0.038179,0.001091,23.375,-26.1875,4.0625,0,2024-11-14,11:03:23.662336
-0.85,2.39,9.37,-0.002182,-0.023998,0.008727,21.875,-26.1875,4.0625,0,2024-11-14,11:03:23.848354
-0.77,2.34,9.5,0.001091,-0.010908,-0.001091,22.25,-25.75,3.25,0,2024-11-14,11:03:24.052362
-0.79,2.43,9.38,-0.001091,-0.001091,0.004363,22.25,-26.1875,3.25,0,2024-11-14,11:03:24.302409
-0.83,2.33,9.39,-0.006545,-0.007636,0.006545,22.5625,-26.5625,4.0625,0,2024-11-14,11:03:24.443314
-0.82,2.28,9.42,-0.005454,0.008727,0.003272,22.5625,-26.5625,2.5,0,2024-11-14,11:03:24.709636
-0.76,2.38,9.41,-0.001091,-0.023998,0.008727,21.5,-26.1875,3.25,0,2024-11-14,11:03:24.957607
-0.68,2.33,9.46,-0.001091,-0.023998,0.003272,21.875,-25.75,3.25,0,2024-11-14,11:03:25.236708
-0.69,2.25,9.38,-0.011999,-0.034907,0.002182,22.25,-27.25,2.875,0,2024-11-14,11:03:25.422946
-0.75,2.35,9.35,-0.007636,-0.005454,0.003272,21.875,-26.5625,2.875,0,2024-11-14,11:03:25.470920
-0.67,2.32,9.39,-0.011999,-0.010908,0.003272,22.25,-27.25,2.5,0,2024-11-14,11:03:25.751841
-0.62,2.25,9.43,-0.006545,-0.018544,0.0,21.875,-26.875,2.5,0,2024-11-14,11:03:25.890759
-0.61,2.28,9.41,-0.007636,-0.017453,-0.003272,22.5625,-25.75,3.25,0,2024-11-14,11:03:26.092960
-0.44,2.34,9.39,-0.016362,-0.029452,0.027271,22.25,-26.875,2.875,0,2024-11-14,11:03:26.357935
-0.49,2.32,9.4,-0.001091,0.01309,0.011999,21.5,-26.5625,2.5,0,2024-11-14,11:03:26.545829
-0.4,2.33,9.53,-0.004363,-0.001091,0.003272,21.875,-26.875,2.5,0,2024-11-14,11:03:26.700697
-0.55,2.24,9.38,0.005454,0.01309,-0.01309,22.25,-26.875,1.75,0,2024-11-14,11:03:26.934552
-0.48,2.25,9.44,0.004363,-0.006545,0.002182,22.25,-26.1875,2.5,0,2024-11-14,11:03:27.169775
-0.58,2.31,9.34,0.003272,0.025089,-0.006545,21.875,-26.5625,2.875,0,2024-11-14,11:03:27.453411
-0.51,2.29,9.44,-0.001091,-0.011999,0.006545,22.25,-26.1875,2.0625,0,2024-11-14,11:03:27.672286
-0.61,2.31,9.33,-0.006545,0.010908,-0.008727,22.25,-25.5,1.25,0,2024-11-14,11:03:27.890239
-0.61,2.29,9.38,-0.001091,-0.006545,-0.001091,21.5,-25.75,2.875,0,2024-11-14,11:03:27.938212
-0.52,2.26,9.39,0.001091,-0.020726,0.005454,21.875,-26.1875,2.0625,0,2024-11-14,11:03:28.189070
-0.51,2.31,9.42,0.001091,0.001091,-0.001091,21.875,-26.875,2.0625,0,2024-11-14,11:03:28.345027
-0.52,2.29,9.41,0.003272,-0.011999,0.0,21.875,-26.875,3.25,0,2024-11-14,11:03:28.546925
-0.47,2.32,9.39,0.006545,0.005454,0.0,21.875,-26.1875,1.75,0,2024-11-14,11:03:28.862416
-0.55,2.29,9.36,0.014181,0.005454,-0.007636,21.875,-26.875,1.75,0,2024-11-14,11:03:29.095288
-0.46,2.42,9.39,0.006545,-0.008727,0.006545,22.5625,-26.1875,1.75,0,2024-11-14,11:03:29.297969
-0.45,2.33,9.34,-0.005454,-0.031634,0.014181,22.25,-26.5625,2.5,0,2024-11-14,11:03:29.343964
-0.44,2.37,9.4,-0.001091,0.008727,-0.006545,22.25,-26.1875,3.25,0,2024-11-14,11:03:29.484790
-0.45,2.3,9.42,-0.008727,0.01309,-0.002182,22.25,-25.75,2.5,0,2024-11-14,11:03:29.721168
-0.49,2.33,9.41,-0.001091,0.006545,-0.003272,21.875,-26.875,3.25,0,2024-11-14,11:03:29.908416
-0.47,2.24,9.41,0.001091,-0.004363,-0.002182,22.25,-26.1875,2.875,0,2024-11-14,11:03:30.085659
-0.45,2.38,9.39,0.004363,-0.004363,0.006545,22.5625,-27.25,2.5,0,2024-11-14,11:03:30.288782
-0.49,2.31,9.38,0.001091,0.0,-0.001091,21.875,-26.5625,2.0625,0,2024-11-14,11:03:30.508100
-0.52,2.43,9.32,-0.010908,-0.002182,0.015272,21.875,-27.25,4.0625,0,2024-11-14,11:03:30.711983
-0.48,2.31,9.42,-0.01309,-0.004363,-0.003272,22.25,-26.875,2.5,0,2024-11-14,11:03:30.916449
-0.4,2.32,9.42,-0.007636,-0.017453,0.014181,22.5625,-26.875,2.5,0,2024-11-14,11:03:31.128436
-0.41,2.28,9.43,-0.005454,0.005454,-0.006545,21.875,-27.25,2.5,0,2024-11-14,11:03:31.424748
-0.42,2.31,9.4,-0.011999,-0.004363,0.007636,22.25,-25.75,3.25,0,2024-11-14,11:03:31.639667
-0.44,2.19,9.45,0.001091,0.011999,-0.007636,21.5,-26.5625,0.5625,0,2024-11-14,11:03:31.855295
-0.46,2.32,9.35,0.003272,0.016362,-0.001091,21.5,-26.5625,2.875,0,2024-11-14,11:03:31.919243
-0.51,2.33,9.63,0.0,-0.01309,0.004363,21.875,-26.875,2.5,0,2024-11-14,11:03:32.110133
-0.5,2.33,9.39,0.009817,-0.003272,0.007636,21.5,-26.5625,2.875,0,2024-11-14,11:03:32.252152
-0.43,2.39,9.43,0.003272,0.003272,-0.001091,21.5,-26.875,2.5,0,2024-11-14,11:03:32.578001
-0.38,2.31,9.44,-0.002182,-0.001091,0.002182,22.25,-26.1875,2.0625,0,2024-11-14,11:03:32.962721
-0.43,2.3,9.4,0.0,0.0,0.002182,21.875,-25.75,1.75,0,2024-11-14,11:03:33.151604
-0.39,2.32,9.42,0.0,-0.009817,-0.001091,21.875,-26.1875,2.875,0,2024-11-14,11:03:33.166595
-0.39,2.33,9.41,-0.001091,0.009817,0.0,21.5,-26.875,2.875,0,2024-11-14,11:03:33.781299
-0.43,2.35,9.63,0.004363,0.015272,-0.003272,21.875,-26.875,1.25,0,2024-11-14,11:03:35.964612
-0.51,2.34,9.35,0.011999,0.003272,0.001091,21.875,-26.5625,1.75,0,2024-11-14,11:03:36.027036
-0.42,2.32,9.35,-0.004363,-0.014181,0.001091,21.5,-26.5625,2.0625,0,2024-11-14,11:03:36.042028
-0.37,2.31,9.4,-0.001091,-0.005454,0.001091,21.1875,-26.1875,1.75,0,2024-11-14,11:03:36.057019
-0.41,2.33,9.39,0.0,-0.003272,0.001091,21.875,-26.875,2.0625,0,2024-11-14,11:03:36.072027
-0.4,2.32,9.4,0.001091,-0.001091,0.0,21.5,-26.875,1.75,0,2024-11-14,11:03:36.135973
-0.35,2.32,9.4,-0.002182,-0.010908,0.001091,21.875,-26.5625,1.75,0,2024-11-14,11:03:36.151965
-0.52,2.3,9.32,0.004363,0.051269,-0.011999,21.875,-26.875,2.875,0,2024-11-14,11:03:36.151965
-0.44,2.33,9.4,0.008727,0.045815,-0.014181,21.5,-26.875,2.0625,0,2024-11-14,11:03:36.151965
-0.39,2.3,9.41,0.008727,0.016362,-0.008727,22.25,-26.5625,2.5,0,2024-11-14,11:03:36.166956
-0.5,2.34,9.38,0.003272,0.023998,-0.008727,22.25,-26.5625,2.875,0,2024-11-14,11:03:36.197940
-0.56,2.33,9.37,0.003272,0.027271,-0.003272,21.875,-26.875,2.875,0,2024-11-14,11:03:36.198949
-0.57,2.32,9.35,0.003272,0.056723,-0.014181,21.875,-26.875,3.25,0,2024-11-14,11:03:36.198949
-0.98,2.29,9.2,0.018544,0.142899,-0.028362,21.5,-26.1875,3.6875,0,2024-11-14,11:03:36.230923
-0.73,2.37,9.42,-0.009817,-0.093811,0.022907,22.5625,-26.1875,3.6875,0,2024-11-14,11:03:36.466784
-0.77,2.3,9.26,-0.001091,0.005454,-0.001091,21.5,-26.1875,3.6875,0,2024-11-14,11:03:36.653812
-0.77,2.41,9.33,0.0,-0.005454,0.002182,21.875,-26.875,3.25,0,2024-11-14,11:03:36.669804
-0.64,2.31,9.38,-0.006545,-0.038179,0.011999,23.0,-26.875,3.25,0,2024-11-14,11:03:36.858697
-0.47,2.35,9.43,-0.006545,-0.032725,0.009817,21.5,-26.1875,2.0625,0,2024-11-14,11:03:37.076993
-0.41,2.29,9.4,0.010908,-0.004363,0.005454,21.5,-26.5625,2.5,0,2024-11-14,11:03:37.983763
-0.27,2.36,9.55,-0.003272,-0.009817,0.007636,21.1875,-26.5625,3.25,0,2024-11-14,11:03:38.044728
-0.34,2.33,9.44,-0.007636,-0.016362,0.007636,21.875,-26.1875,2.875,0,2024-11-14,11:03:38.060397
-0.38,2.31,9.4,0.001091,0.042542,-0.014181,22.25,-26.1875,1.75,0,2024-11-14,11:03:38.091378
-0.46,2.33,9.36,0.01309,0.033816,-0.016362,21.5,-26.1875,2.875,0,2024-11-14,11:03:38.107369
-0.5,2.32,9.37,0.015272,0.03927,-0.015272,22.25,-26.875,2.0625,0,2024-11-14,11:03:38.278564
-0.61,2.38,9.36,0.010908,0.035997,-0.009817,21.5,-26.5625,3.25,0,2024-11-14,11:03:38.544353
-0.6,2.44,9.42,-0.015272,-0.016362,0.001091,21.875,-26.5625,2.5,0,2024-11-14,11:03:38.732730
-0.81,2.41,9.36,0.003272,0.032725,-0.008727,22.25,-26.1875,4.5,0,2024-11-14,11:03:38.963819
-0.68,2.39,9.42,-0.009817,-0.046906,0.01309,22.25,-26.875,3.25,0,2024-11-14,11:03:39.105908
-0.76,2.37,9.37,-0.008727,0.011999,-0.003272,22.5625,-25.5,3.25,0,2024-11-14,11:03:39.294263
-0.69,2.36,9.4,-0.011999,-0.030543,0.008727,21.5,-26.5625,2.0625,0,2024-11-14,11:03:39.513398
-0.65,2.36,9.42,-0.006545,-0.030543,0.009817,21.875,-26.5625,3.25,0,2024-11-14,11:03:39.714075
-0.59,2.33,9.37,-0.011999,-0.068722,0.022907,23.0,-26.5625,2.875,0,2024-11-14,11:03:39.914578
-0.49,2.34,9.6,0.004363,-0.043633,0.010908,21.5,-26.5625,3.25,0,2024-11-14,11:03:40.164206
-0.42,2.31,9.39,0.010908,0.040361,-0.014181,22.5625,-26.875,2.5,0,2024-11-14,11:03:40.317127
-0.41,2.31,9.34,0.009817,0.025089,-0.011999,21.5,-26.5625,2.875,0,2024-11-14,11:03:40.550173
-0.44,2.36,9.4,0.008727,0.017453,-0.008727,22.25,-26.875,3.0,0,2024-11-14,11:03:40.769325
-0.47,2.37,9.43,0.010908,0.030543,-0.009817,21.5,-26.875,1.75,0,2024-11-14,11:03:40.954224
-0.58,2.37,9.38,0.011999,0.044724,-0.015272,21.875,-26.875,2.5,0,2024-11-14,11:03:41.258155
-0.69,2.37,9.38,0.009817,0.061087,-0.017453,22.25,-26.1875,2.5,0,2024-11-14,11:03:41.463705
-0.87,2.4,9.47,0.017453,0.090539,-0.023998,21.875,-27.25,2.875,0,2024-11-14,11:03:41.494692
-0.87,2.39,9.33,0.0,-0.028362,0.006545,22.25,-25.75,3.25,0,2024-11-14,11:03:41.725354
-0.76,2.42,9.33,-0.007636,-0.022907,0.007636,21.875,-26.5625,3.25,0,2024-11-14,11:03:41.864274
-0.76,2.39,9.33,-0.001091,0.005454,0.0,22.25,-26.1875,2.875,0,2024-11-14,11:03:42.095187
-0.73,2.4,9.35,-0.005454,-0.028362,0.007636,21.875,-26.1875,3.25,0,2024-11-14,11:03:42.299787
-0.59,2.38,9.38,-0.010908,-0.034907,0.01309,21.875,-26.1875,3.0,0,2024-11-14,11:03:42.565631
-0.49,2.39,9.49,-0.006545,-0.070904,0.016362,22.25,-26.5625,2.0625,0,2024-11-14,11:03:42.827592
-0.36,2.3,9.48,-0.028362,-0.050178,0.019635,21.5,-26.5625,2.5,0,2024-11-14,11:03:42.997001
-0.42,2.28,9.43,-0.005454,-0.017453,0.004363,21.875,-26.875,1.25,0,2024-11-14,11:03:43.212127
-0.43,2.3,9.38,-0.002182,0.008727,0.001091,22.25,-26.1875,2.5,0,2024-11-14,11:03:43.478064
-0.41,2.32,9.39,-0.003272,-0.014181,0.003272,21.5,-26.875,1.25,0,2024-11-14,11:03:43.856361
-0.38,2.28,9.44,-0.003272,-0.015272,0.006545,21.875,-26.5625,2.0625,0,2024-11-14,11:03:44.058246
-0.36,2.33,9.42,0.0,-0.001091,0.0,21.1875,-25.75,1.75,0,2024-11-14,11:03:44.340284
-0.3,2.3,9.32,-0.004363,-0.004363,0.002182,21.5,-27.25,1.75,0,2024-11-14,11:03:44.448222
-0.25,2.3,9.45,-0.001091,0.011999,0.0,21.5,-26.1875,2.0625,0,2024-11-14,11:03:44.543168
-0.21,2.32,9.46,-0.001091,0.005454,0.001091,21.5,-26.875,3.25,0,2024-11-14,11:03:44.543168
-0.39,2.32,9.36,0.0,0.004363,-0.001091,21.875,-26.5625,2.5,0,2024-11-14,11:03:44.761902
-0.3,2.3,9.49,0.0,-0.004363,0.003272,21.5,-26.1875,3.25,0,2024-11-14,11:03:45.012921
-0.37,2.32,9.42,0.006545,0.067632,-0.015272,21.5,-26.5625,2.5,0,2024-11-14,11:03:45.247642
-0.44,2.33,9.41,0.002182,0.042542,-0.010908,21.875,-26.875,2.875,0,2024-11-14,11:03:45.452922
-0.71,2.32,9.14,0.017453,0.07854,-0.020726,21.5,-26.5625,2.0625,0,2024-11-14,11:03:45.654688
-0.66,2.34,9.36,0.003272,0.040361,-0.011999,22.5625,-26.5625,3.25,0,2024-11-14,11:03:45.716652
-0.63,2.27,9.35,0.008727,0.051269,-0.010908,22.25,-26.875,4.0625,0,2024-11-14,11:03:45.904699
-0.75,2.34,9.35,0.004363,0.041452,-0.01309,21.875,-26.1875,4.5,0,2024-11-14,11:03:46.075604
-0.75,2.34,9.36,-0.002182,-0.018544,0.004363,21.5,-26.875,2.5,0,2024-11-14,11:03:46.310492
-0.67,2.32,9.39,-0.010908,-0.042542,0.011999,21.875,-25.75,4.0625,0,2024-11-14,11:03:46.497769
-0.51,2.3,9.39,-0.004363,-0.028362,0.008727,21.5,-25.75,3.25,0,2024-11-14,11:03:46.685666
-0.55,2.31,9.38,-0.001091,-0.02618,0.009817,22.25,-26.1875,2.5,0,2024-11-14,11:03:46.886565
-0.45,2.27,9.39,0.002182,-0.007636,0.002182,21.875,-26.5625,3.0,0,2024-11-14,11:03:47.150459
-0.41,2.32,9.43,-0.002182,-0.015272,0.004363,20.75,-26.1875,1.75,0,2024-11-14,11:03:47.493257
-0.39,2.29,9.37,-0.002182,-0.027271,0.011999,21.875,-26.5625,1.75,0,2024-11-14,11:03:47.744108
-0.3,2.3,9.42,0.004363,-0.006545,0.003272,21.1875,-26.1875,1.75,0,2024-11-14,11:03:47.945510
-0.3,2.3,9.45,0.0,0.009817,-0.003272,21.875,-26.875,1.25,0,2024-11-14,11:03:47.976489
-0.3,2.35,9.66,0.001091,0.038179,-0.010908,21.1875,-26.5625,2.0625,0,2024-11-14,11:03:48.097424
0.45,-9.09,3.03,-0.023998,0.025089,0.003272,24.25,-2.875,-29.0625,1,2024-11-14,11:04:01.363613
0.57,-9.24,3.1,-0.009817,-0.008727,-0.029452,24.25,-3.25,-29.0625,1,2024-11-14,11:04:01.424110
0.49,-9.16,3.03,-0.002182,0.066541,-0.003272,23.875,-2.5,-30.25,1,2024-11-14,11:04:01.645983
0.64,-9.17,3.2,0.004363,0.004363,-0.025089,23.875,-2.875,-29.5625,1,2024-11-14,11:04:01.846749
0.64,-9.11,3.2,-0.025089,-0.025089,-0.001091,24.25,-2.1875,-29.5,1,2024-11-14,11:04:01.862741
0.64,-9.24,3.11,-0.004363,-0.008727,0.005454,23.1875,-1.5,-29.875,1,2024-11-14,11:04:02.048769
0.68,-9.22,3.11,-0.008727,0.032725,0.008727,24.6875,-2.5,-29.5625,1,2024-11-14,11:04:02.282614
0.55,-9.27,3.16,-0.020726,0.067632,0.029452,24.6875,-2.1875,-28.6875,1,2024-11-14,11:04:02.489958
0.49,-9.17,3.06,-0.011999,0.151625,-0.018544,25.6875,-2.5,-29.5625,1,2024-11-14,11:04:02.660841
0.45,-9.2,3.1,0.023998,0.218166,-0.025089,26.875,-1.75,-28.375,1,2024-11-14,11:04:02.858728
0.48,-9.25,3.24,-0.006545,0.113446,-0.011999,26.5,-1.75,-27.1875,1,2024-11-14,11:04:03.094190
0.29,-9.08,3.03,-0.006545,0.028362,0.008727,27.875,-2.5,-26.75,1,2024-11-14,11:04:03.264090
0.34,-9.27,3.04,0.004363,-0.020726,-0.004363,28.6875,-1.75,-27.875,1,2024-11-14,11:04:03.464520
0.37,-9.18,3.09,0.008727,-0.027271,-0.01309,28.25,-2.1875,-27.875,1,2024-11-14,11:04:03.702411
0.45,-9.2,3.05,0.005454,-0.066541,0.005454,27.875,-1.75,-27.875,1,2024-11-14,11:04:03.926311
0.51,-9.18,3.16,-0.005454,-0.088357,-0.005454,27.1875,-2.0625,-28.375,1,2024-11-14,11:04:04.224500
0.51,-9.19,3.05,-0.014181,-0.050178,0.004363,26.5,-1.75,-27.875,1,2024-11-14,11:04:04.444372
0.49,-9.18,3.01,-0.037088,-0.109083,-0.001091,26.0625,-2.1875,-28.375,1,2024-11-14,11:04:04.647000
0.61,-9.18,2.98,-0.019635,-0.07854,0.008727,25.6875,-1.75,-28.375,1,2024-11-14,11:04:04.663001
0.68,-9.21,3.01,-0.022907,-0.023998,-0.004363,25.375,-1.75,-28.6875,1,2024-11-14,11:04:04.849895
0.67,-9.25,3.06,0.011999,0.021817,-0.002182,24.6875,-1.5,-31.0625,1,2024-11-14,11:04:05.018016
0.71,-9.25,3.19,0.003272,0.05236,0.015272,26.0625,-1.5,-29.1875,1,2024-11-14,11:04:05.250132
0.5,-9.18,3.19,0.011999,0.125446,0.007636,26.75,-1.5,-28.5,1,2024-11-14,11:04:05.486545
0.43,-9.27,3.01,-0.009817,0.134172,-0.003272,27.0625,-1.75,-28.375,1,2024-11-14,11:04:05.845378
0.43,-9.16,3.12,0.002182,0.116719,-0.004363,27.75,-2.5,-28.0,1,2024-11-14,11:04:06.061687
0.36,-9.2,3.12,0.001091,0.136354,-0.019635,29.0,-1.75,-26.0625,1,2024-11-14,11:04:06.123661
0.2,-9.14,2.92,-0.002182,0.023998,-0.005454,29.375,-1.75,-26.5,1,2024-11-14,11:04:06.264650
0.34,-9.23,3.04,0.0,-0.032725,0.003272,29.0,-1.75,-26.5,1,2024-11-14,11:04:06.438348
0.32,-9.16,3.05,-0.008727,-0.095993,0.0,29.0,-2.1875,-27.25,1,2024-11-14,11:04:06.687347
0.45,-9.12,3.13,-0.006545,-0.161443,0.005454,29.0,-1.5,-27.25,1,2024-11-14,11:04:07.070542
0.42,-9.22,2.87,0.0,-0.14508,0.003272,27.0625,-1.5,-27.25,1,2024-11-14,11:04:07.084526
0.59,-9.21,2.97,-0.01309,-0.114537,0.006545,26.375,-0.6875,-29.6875,1,2024-11-14,11:04:07.458810
0.62,-9.15,2.89,-0.008727,-0.090539,-0.005454,25.5625,-1.75,-29.1875,1,2024-11-14,11:04:07.752409
0.72,-9.21,3.05,-0.006545,-0.098175,0.003272,25.6875,-1.5,-29.1875,1,2024-11-14,11:04:07.831453
0.69,-9.18,3.0,0.019635,0.047997,0.01309,24.875,-1.5,-30.375,1,2024-11-14,11:04:08.019881
0.56,-9.23,2.92,-0.002182,0.167988,0.002182,25.0,-1.0625,-29.1875,1,2024-11-14,11:04:08.236567
0.54,-9.24,2.95,0.004363,0.062177,0.010908,26.375,-1.75,-29.1875,1,2024-11-14,11:04:08.251538
0.47,-9.01,3.18,-0.027271,0.110174,-0.047997,26.75,-2.1875,-29.1875,1,2024-11-14,11:04:08.439814
0.79,-9.2,2.93,-0.059996,0.014181,-0.07854,29.0625,-1.0625,-28.5,1,2024-11-14,11:04:08.595026
0.89,-9.39,2.8,0.025089,0.005454,-0.043633,27.75,0.0,-28.0,1,2024-11-14,11:04:08.796029
0.96,-9.49,2.87,0.088357,0.059996,0.05236,28.5625,-0.375,-28.0,1,2024-11-14,11:04:09.015459
0.55,-9.24,3.01,-0.028362,-0.046906,-0.025089,28.1875,-1.5,-28.5,1,2024-11-14,11:04:09.264376
0.71,-9.32,2.76,-0.029452,-0.020726,0.003272,27.5,0.0,-28.0,1,2024-11-14,11:04:09.438410
0.77,-9.29,2.79,0.055632,0.006545,-0.003272,28.1875,0.0,-27.6875,1,2024-11-14,11:04:09.626912
0.73,-9.28,2.78,0.017453,0.041452,0.017453,27.75,-0.25,-27.6875,1,2024-11-14,11:04:09.813958
0.76,-9.21,3.06,-0.051269,-0.115628,0.098175,27.75,-1.0625,-28.75,1,2024-11-14,11:04:10.030154
-0.01,-9.35,2.76,-0.007636,-0.212712,0.021817,28.5625,-1.0625,-28.5,1,2024-11-14,11:04:10.216560
0.52,-9.12,2.98,0.07854,-0.074176,-0.029452,26.75,-1.5,-29.6875,1,2024-11-14,11:04:10.482480
0.54,-9.32,3.04,-0.063268,-0.030543,0.023998,24.875,-1.5,-30.0,1,2024-11-14,11:04:10.682041
0.63,-9.22,2.98,0.002182,-0.055632,-0.022907,26.375,-1.75,-29.6875,1,2024-11-14,11:04:10.902915
0.5,-9.24,2.94,0.037088,0.167988,0.020726,25.25,-1.0625,-30.0,1,2024-11-14,11:04:11.043834
0.44,-9.24,2.96,0.0,0.131991,-0.006545,27.0625,-1.0625,-28.75,1,2024-11-14,11:04:11.703496
0.27,-9.26,2.91,-0.008727,0.09163,0.003272,27.75,-1.0625,-28.75,1,2024-11-14,11:04:11.718486
0.32,-9.24,2.99,0.010908,0.075267,0.002182,27.75,-2.1875,-28.75,1,2024-11-14,11:04:11.814432
0.34,-9.23,3.06,-0.006545,0.06545,-0.011999,27.75,-1.0625,-28.0,1,2024-11-14,11:04:11.861825
0.26,-9.2,2.95,-0.003272,0.004363,-0.002182,29.0,-1.75,-27.25,1,2024-11-14,11:04:12.096371
0.29,-9.23,2.92,0.002182,-0.021817,0.003272,28.5625,-1.75,-28.0,1,2024-11-14,11:04:12.268284
0.39,-9.16,3.08,-0.017453,-0.089448,0.008727,28.5625,-1.75,-28.5,1,2024-11-14,11:04:12.518807
0.33,-9.23,3.02,0.003272,-0.063268,0.014181,28.1875,-0.25,-28.5,1,2024-11-14,11:04:12.876986
0.4,-9.2,3.02,-0.011999,-0.051269,-0.006545,28.1875,-1.75,-28.5,1,2024-11-14,11:04:13.033035
0.37,-9.22,2.93,-0.004363,-0.06545,0.002182,27.5,-2.0625,-28.5625,1,2024-11-14,11:04:13.235109
0.43,-9.21,2.98,-0.007636,-0.064359,0.004363,27.5,-1.0625,-28.875,1,2024-11-14,11:04:13.282165
0.48,-9.21,2.88,-0.01309,-0.022907,-0.003272,26.75,-1.0625,-28.0625,1,2024-11-14,11:04:13.456090
0.53,-9.26,2.93,0.005454,-0.01309,-0.008727,26.75,-2.1875,-30.0625,1,2024-11-14,11:04:13.627464
0.49,-9.2,2.97,0.017453,0.009817,0.004363,26.375,-1.75,-30.0625,1,2024-11-14,11:04:14.266011
0.48,-9.23,2.91,-0.006545,0.071995,0.008727,26.375,-1.5,-28.875,1,2024-11-14,11:04:16.472263
0.4,-9.22,2.96,0.002182,0.071995,0.001091,26.375,-1.5,-28.875,1,2024-11-14,11:04:16.502230
0.37,-9.18,2.95,-0.001091,0.085085,-0.002182,27.5,-1.0625,-28.5625,1,2024-11-14,11:04:16.533212
0.33,-9.22,2.93,-0.001091,0.070904,-0.007636,28.0625,-1.0625,-27.75,1,2024-11-14,11:04:16.595193
0.29,-9.25,2.89,-0.005454,0.005454,-0.004363,28.5,-1.5,-27.75,1,2024-11-14,11:04:16.657142
0.32,-9.16,2.95,0.003272,-0.029452,0.004363,28.0625,-1.0625,-27.75,1,2024-11-14,11:04:16.657142
0.37,-9.23,2.92,-0.01309,-0.02618,0.002182,28.0625,-1.75,-28.0625,1,2024-11-14,11:04:16.657142
0.37,-9.21,2.94,-0.001091,-0.054542,0.003272,28.0625,-1.0625,-28.0625,1,2024-11-14,11:04:16.657142
0.39,-9.22,2.93,-0.006545,-0.037088,0.002182,28.0625,-1.0625,-28.0625,1,2024-11-14,11:04:16.657142
0.41,-9.25,2.92,-0.008727,-0.062177,-0.001091,27.0,-1.75,-28.5625,1,2024-11-14,11:04:16.657142
0.48,-9.17,2.97,-0.011999,-0.070904,0.010908,27.375,-1.5,-29.75,1,2024-11-14,11:04:16.657142
0.45,-9.25,2.9,0.005454,-0.042542,0.004363,26.6875,-1.5,-29.75,1,2024-11-14,11:04:16.704114
0.51,-9.23,2.98,-0.002182,-0.043633,-0.004363,27.0,-1.5,-28.875,1,2024-11-14,11:04:16.720109
0.48,-9.26,2.88,0.006545,0.001091,0.0,25.875,-1.5,-30.5,1,2024-11-14,11:04:16.735097
0.48,-9.23,2.9,-0.001091,0.030543,0.009817,26.6875,-1.5,-29.75,1,2024-11-14,11:04:16.877341
0.44,-9.26,2.88,0.002182,0.077449,0.005454,26.25,-1.5,-28.875,1,2024-11-14,11:04:17.099214
0.42,-9.25,3.03,0.004363,0.074176,-0.005454,27.0,-1.0625,-29.25,1,2024-11-14,11:04:17.333084
0.39,-9.25,2.92,-0.006545,0.090539,-0.006545,27.375,-1.75,-28.875,1,2024-11-14,11:04:17.520338
0.4,-9.23,3.01,0.002182,0.056723,-0.007636,27.6875,-1.75,-28.5625,1,2024-11-14,11:04:17.722760
0.33,-9.26,2.91,0.0,-0.006545,0.002182,28.0625,-0.6875,-28.5625,1,2024-11-14,11:04:17.922844
0.3,-9.23,2.91,0.008727,-0.027271,0.001091,28.5,-1.0625,-27.375,1,2024-11-14,11:04:18.123746
0.37,-9.23,2.91,-0.004363,-0.032725,0.001091,27.6875,-0.25,-28.5625,1,2024-11-14,11:04:18.311638
0.39,-9.24,2.9,-0.002182,-0.037088,0.001091,27.6875,-1.0625,-29.25,1,2024-11-14,11:04:18.513237
0.41,-9.29,2.94,-0.019635,-0.051269,-0.002182,27.6875,-1.75,-28.5625,1,2024-11-14,11:04:18.748773
0.39,-9.3,2.85,0.004363,-0.066541,0.007636,27.375,-1.75,-29.25,1,2024-11-14,11:04:18.953023
0.46,-9.19,2.91,-0.006545,-0.062177,-0.007636,27.375,-1.0625,-28.875,1,2024-11-14,11:04:19.264367
0.48,-9.28,2.86,-0.004363,-0.027271,0.0,27.0,-0.6875,-29.25,1,2024-11-14,11:04:19.373304
0.48,-9.23,2.87,0.001091,-0.031634,-0.002182,26.0,-1.0625,-29.25,1,2024-11-14,11:04:19.575067
0.53,-9.23,2.92,-0.005454,-0.018544,0.001091,26.375,-1.0625,-30.875,1,2024-11-14,11:04:21.540964
0.55,-9.28,2.9,0.003272,0.018544,0.007636,26.0,-1.75,-29.75,1,2024-11-14,11:04:21.557953
0.43,-9.24,2.74,0.005454,0.089448,0.002182,25.875,-1.0625,-29.25,1,2024-11-14,11:04:21.571959
0.43,-9.28,2.81,0.010908,0.105811,0.001091,26.25,-1.0625,-29.25,1,2024-11-14,11:04:21.601927
0.28,-9.2,2.83,0.001091,0.05236,0.002182,26.375,-2.1875,-28.875,1,2024-11-14,11:04:21.646916
0.35,-9.28,2.87,-0.001091,0.081812,-0.005454,27.6875,-1.0625,-28.875,1,2024-11-14,11:04:21.661893
0.33,-9.24,2.86,-0.001091,0.022907,-0.004363,28.0625,-0.6875,-27.75,1,2024-11-14,11:04:21.723876
0.34,-9.21,2.87,0.0,-0.014181,-0.002182,28.0625,-1.5,-28.875,1,2024-11-14,11:04:21.755857
0.37,-9.26,2.91,0.001091,-0.037088,0.001091,28.0625,-1.5,-28.5625,1,2024-11-14,11:04:21.755857
0.37,-9.28,2.94,0.0,-0.056723,0.002182,27.6875,-2.0625,-28.0625,1,2024-11-14,11:04:21.755857
0.38,-9.26,2.87,0.002182,-0.053451,0.010908,27.6875,-1.75,-29.25,1,2024-11-14,11:04:21.849396
0.44,-9.24,2.92,-0.001091,-0.066541,-0.005454,26.25,-1.5,-28.5625,1,2024-11-14,11:04:21.915360
0.42,-9.26,2.84,0.0,-0.045815,0.002182,26.25,-1.5,-29.25,1,2024-11-14,11:04:22.112801
0.5,-9.23,2.9,0.0,-0.03927,-0.001091,25.875,-1.5,-29.75,1,2024-11-14,11:04:22.329971
0.48,-9.24,2.85,-0.004363,-0.02618,-0.002182,27.0,-1.5,-29.25,1,2024-11-14,11:04:22.516379
0.53,-9.25,2.88,0.0,-0.021817,0.002182,26.25,-1.0625,-30.5,1,2024-11-14,11:04:22.878562
0.61,-9.23,2.9,-0.011999,-0.007636,0.011999,25.5,-0.6875,-29.25,1,2024-11-14,11:04:23.112952
0.48,-9.25,2.88,0.002182,0.035997,0.016362,25.5,-0.6875,-29.25,1,2024-11-14,11:04:23.252834
0.47,-9.26,2.94,-0.001091,0.062177,-0.007636,25.875,-1.0625,-29.25,1,2024-11-14,11:04:23.504792
0.39,-9.23,2.88,0.010908,0.075267,0.004363,25.875,-1.75,-29.25,1,2024-11-14,11:04:23.662489
0.38,-9.25,2.86,-0.002182,0.063268,-0.005454,26.25,-0.25,-28.875,1,2024-11-14,11:04:23.662489
0.36,-9.27,2.91,0.016362,-0.014181,0.007636,27.375,-1.5,-28.0625,1,2024-11-14,11:04:23.946371
0.46,-9.36,3.04,0.075267,0.09163,0.042542,27.0,-2.0625,-27.75,1,2024-11-14,11:04:24.099288
0.55,-9.57,3.46,-0.025089,0.387245,-0.019635,28.5,-1.75,-27.75,1,2024-11-14,11:04:24.256491
0.15,-9.59,3.46,0.403607,0.490874,0.119991,30.6875,-2.5,-23.375,1,2024-11-14,11:04:24.505944
-0.6,-9.46,4.96,1.026472,0.60432,0.142899,33.0625,-5.875,-17.875,1,2024-11-14,11:04:24.692622
-1.42,-7.03,5.97,0.453786,-0.311978,-0.142899,33.6875,-9.375,-14.375,1,2024-11-14,11:04:24.894425
-0.89,-7.2,6.6,0.49851,-0.261799,0.067632,33.0,-10.0625,-15.5,1,2024-11-14,11:04:25.139371
-0.57,-6.81,6.57,0.099266,-0.226893,0.112356,32.1875,-12.375,-16.6875,1,2024-11-14,11:04:25.515339
0.68,-6.8,8.46,0.090539,-0.390517,0.19635,29.375,-13.5,-18.1875,1,2024-11-14,11:04:25.749103
2.22,-5.51,7.85,1.941679,-1.075559,0.902117,25.375,-17.1875,-19.5625,1,2024-11-14,11:04:25.914806
2.11,1.02,7.69,1.306815,-0.405789,0.908662,18.0625,-27.5625,-16.5,1,2024-11-14,11:04:25.914806
1.58,-1.03,10.96,0.179987,0.549779,0.105811,14.0625,-31.25,-11.0,1,2024-11-14,11:04:26.132752
-0.68,-1.35,12.57,0.305433,0.124355,-0.020726,15.875,-33.0625,-9.375,1,2024-11-14,11:04:26.396675
-0.29,-0.27,9.88,0.207258,0.031634,-0.061087,16.5625,-32.5625,-5.875,1,2024-11-14,11:04:26.646532
-0.49,-0.71,10.02,-0.030543,-0.178896,0.129809,16.75,-33.25,-6.25,1,2024-11-14,11:04:26.879326
-0.17,-1.96,10.16,0.457058,-0.189805,0.075267,15.375,-33.25,-6.25,1,2024-11-14,11:04:27.141425
-0.21,0.51,9.94,0.128718,0.069813,-0.422152,15.75,-34.0,-4.375,1,2024-11-14,11:04:27.329529
-0.91,2.42,9.05,0.39379,-0.138536,-0.885755,19.0,-31.375,-2.6875,1,2024-11-14,11:04:27.345520
-1.7,-0.22,8.24,0.021817,0.618501,-0.437423,22.25,-28.0625,-2.0,1,2024-11-14,11:04:27.580436
-2.19,2.39,8.72,0.795216,0.640318,-0.370882,27.1875,-25.25,2.75,1,2024-11-14,11:04:27.796607
-0.87,2.12,10.14,-0.290161,-0.797397,0.509418,27.1875,-23.75,4.0,1,2024-11-14,11:04:27.967571
0.38,0.98,10.08,1.355903,-0.201804,1.253365,25.0625,-27.5,1.6875,1,2024-11-14,11:04:28.155479
2.76,5.2,4.3,3.023783,0.100356,0.613047,16.5625,-29.75,11.875,1,2024-11-14,11:04:28.357757
1.16,6.76,2.08,0.416697,0.258527,-0.759218,15.875,-24.5,21.0,1,2024-11-14,11:04:28.668162
-0.95,9.18,1.99,1.359175,-0.865029,-0.074176,19.0625,-21.0625,21.0,1,2024-11-14,11:04:28.900033
2.55,9.03,0.83,1.468258,-0.6305,0.14399,25.0625,-13.25,22.0,1,2024-11-14,11:04:29.070934
2.12,10.1,-1.92,-0.283616,0.711222,0.554142,26.1875,-11.0625,21.6875,1,2024-11-14,11:04:29.101919
4.74,8.34,0.8,-0.202895,-0.062177,0.646863,24.0625,-15.0625,22.5,1,2024-11-14,11:04:29.369996
2.92,9.19,0.69,0.629409,-0.301069,0.064359,22.1875,-16.875,22.0625,1,2024-11-14,11:04:29.605869
3.5,8.8,-1.02,0.194168,-0.017453,-0.038179,23.6875,-15.0625,22.5,1,2024-11-14,11:04:29.789862
4.27,8.27,-1.07,0.346884,0.127627,-0.174533,23.6875,-13.5625,22.875,1,2024-11-14,11:04:30.005933
3.99,8.95,-1.62,0.002182,0.237801,-0.18326,23.0,-12.0,23.6875,1,2024-11-14,11:04:30.223992
3.96,8.81,-1.17,-0.231256,0.189805,-0.081812,23.375,-10.5625,23.6875,1,2024-11-14,11:04:30.396389
3.39,8.77,-0.47,-0.070904,0.023998,-0.159261,22.1875,-11.5625,25.25,1,2024-11-14,11:04:30.626257
3.47,9.15,-0.91,0.095993,-0.098175,0.004363,21.875,-11.5625,25.25,1,2024-11-14,11:04:30.829135
3.25,9.07,-1.18,0.032725,0.129809,-0.068722,21.5,-10.1875,25.5625,1,2024-11-14,11:04:31.142038
3.26,8.94,-0.92,-0.006545,0.044724,-0.006545,21.5,-10.1875,26.0,1,2024-11-14,11:04:31.328075
3.32,8.98,-0.82,0.040361,0.01309,-0.006545,21.1875,-10.875,25.5625,1,2024-11-14,11:04:31.577756
3.36,9.12,-1.09,0.033816,-0.004363,0.018544,21.875,-10.5625,25.5625,1,2024-11-14,11:04:31.593731
3.25,9.09,-1.0,-0.020726,-0.018544,0.016362,20.75,-10.875,25.5625,1,2024-11-14,11:04:31.764632
3.29,9.07,-0.97,0.001091,0.038179,-0.038179,22.1875,-10.1875,26.0625,1,2024-11-14,11:04:32.015790
3.32,9.11,-1.0,-0.009817,-0.040361,0.025089,21.5,-10.1875,26.375,1,2024-11-14,11:04:32.186733
3.37,9.08,-1.04,-0.009817,0.02618,-0.004363,21.5,-10.5625,25.5625,1,2024-11-14,11:04:32.386573
3.23,9.11,-1.1,0.018544,0.022907,-0.010908,21.1875,-10.875,25.25,1,2024-11-14,11:04:32.648731
3.31,9.15,-0.94,-0.015272,-0.017453,0.006545,21.875,-10.1875,25.5625,1,2024-11-14,11:04:32.883765
3.26,9.1,-0.97,0.010908,0.001091,-0.009817,21.875,-9.75,26.375,1,2024-11-14,11:04:33.132581
3.31,9.16,-0.91,-0.020726,-0.037088,0.025089,21.1875,-10.5625,27.1875,1,2024-11-14,11:04:33.379933
3.26,9.09,-0.94,-0.01309,-0.019635,0.007636,21.5,-10.5625,25.25,1,2024-11-14,11:04:33.599683
3.36,9.1,-0.96,0.002182,-0.021817,0.008727,21.875,-10.5625,26.0625,1,2024-11-14,11:04:33.599683
3.34,9.13,-0.97,-0.001091,0.014181,0.001091,21.5,-10.5625,26.375,1,2024-11-14,11:04:33.814600
3.33,9.11,-1.04,-0.004363,0.005454,-0.003272,21.875,-10.5625,25.25,1,2024-11-14,11:04:34.096266
3.31,9.08,-0.94,-0.019635,-0.028362,0.014181,21.875,-9.75,26.0,1,2024-11-14,11:04:34.284139
3.34,9.06,-0.98,0.001091,-0.05236,0.035997,21.5,-10.5625,24.0625,1,2024-11-14,11:04:34.542928
3.33,8.99,-0.89,-0.041452,-0.061087,0.043633,21.5,-10.875,25.5625,1,2024-11-14,11:04:34.574910
3.55,9.08,-0.94,-0.023998,-0.02618,0.009817,21.875,-11.25,25.25,1,2024-11-14,11:04:34.734469
3.51,9.02,-0.87,0.029452,0.049087,-0.034907,22.5625,-10.875,24.375,1,2024-11-14,11:04:34.952854
3.44,9.08,-1.01,0.050178,0.075267,-0.031634,21.875,-10.875,26.0625,1,2024-11-14,11:04:35.169729
3.37,9.0,-0.93,0.010908,0.057814,-0.058905,20.375,-10.875,26.375,1,2024-11-14,11:04:35.309156
3.27,9.08,-1.0,0.016362,0.051269,-0.055632,21.875,-9.75,25.5625,1,2024-11-14,11:04:35.514904
3.21,9.08,-0.99,0.01309,0.022907,-0.001091,21.5,-9.5,26.375,1,2024-11-14,11:04:35.716805
3.26,9.11,-1.02,-0.006545,-0.022907,0.023998,21.1875,-9.75,25.25,1,2024-11-14,11:04:36.016063
3.25,9.1,-1.16,-0.001091,0.0,0.008727,22.1875,-9.75,26.0625,1,2024-11-14,11:04:36.304010
3.32,9.09,-1.07,-0.016362,-0.034907,0.016362,21.5,-9.5,26.0625,1,2024-11-14,11:04:36.573121
3.4,9.07,-0.96,-0.028362,-0.059996,0.044724,21.5,-10.1875,25.25,1,2024-11-14,11:04:36.760052
3.4,9.05,-0.98,-0.022907,-0.043633,0.021817,22.1875,-10.5625,25.25,1,2024-11-14,11:04:36.761051
3.5,9.04,-0.99,-0.010908,-0.044724,0.021817,21.5,-11.5625,25.25,1,2024-11-14,11:04:36.977942
3.48,9.05,-0.97,-0.018544,-0.023998,0.019635,21.875,-10.875,24.0625,1,2024-11-14,11:04:37.163113
3.49,9.05,-0.98,-0.004363,-0.032725,0.003272,22.1875,-11.25,25.25,1,2024-11-14,11:04:37.487918
3.55,9.04,-0.95,-0.009817,-0.050178,0.025089,22.5625,-10.875,23.6875,1,2024-11-14,11:04:37.731918
3.56,9.03,-0.91,-0.006545,0.007636,0.0,21.875,-11.5625,24.0625,1,2024-11-14,11:04:37.904490
3.48,9.06,-0.95,0.031634,0.077449,-0.045815,22.5625,-11.25,24.875,1,2024-11-14,11:04:38.074475
3.39,9.05,-0.98,0.027271,0.083994,-0.044724,21.875,-11.25,25.25,1,2024-11-14,11:04:38.493249
3.36,9.07,-0.95,0.027271,0.066541,-0.045815,21.875,-10.875,26.0625,1,2024-11-14,11:04:38.694732
3.25,9.15,-1.06,0.031634,0.080721,-0.043633,21.1875,-9.75,25.25,1,2024-11-14,11:04:38.789662
3.24,9.09,-0.97,-0.007636,-0.011999,0.007636,21.1875,-9.75,26.75,1,2024-11-14,11:04:38.945093
3.21,9.12,-1.0,-0.025089,-0.041452,0.029452,20.375,-9.5,26.375,1,2024-11-14,11:04:39.182239
3.25,9.16,-1.0,-0.002182,-0.037088,0.029452,21.875,-9.75,26.0625,1,2024-11-14,11:04:39.321520
3.29,9.08,-0.99,-0.029452,-0.061087,0.033816,21.5,-10.875,26.0625,1,2024-11-14,11:04:39.336511
3.38,9.03,-0.97,-0.025089,-0.042542,0.032725,21.5,-10.875,24.875,1,2024-11-14,11:04:39.539396
3.38,9.0,-1.05,-0.018544,-0.018544,0.01309,21.875,-10.5625,24.375,1,2024-11-14,11:04:39.789514
3.43,9.09,-0.95,-0.002182,-0.077449,0.007636,22.1875,-11.25,24.875,1,2024-11-14,11:04:39.992414
3.45,9.06,-1.0,-0.008727,-0.018544,0.017453,22.1875,-11.25,24.375,1,2024-11-14,11:04:40.134319
3.43,9.01,-0.93,-0.01309,0.002182,-0.017453,22.5625,-10.875,25.25,1,2024-11-14,11:04:40.351235
3.4,9.06,-0.96,0.021817,0.041452,-0.006545,21.5,-10.5625,23.6875,1,2024-11-14,11:04:40.570110
3.38,9.04,-0.94,0.009817,0.016362,-0.02618,22.5625,-10.5625,24.5,1,2024-11-14,11:04:40.775274
3.3,9.08,-0.9,-0.011999,0.016362,-0.017453,22.1875,-10.875,24.875,1,2024-11-14,11:04:40.991303
3.46,8.97,-0.69,-0.106901,0.217075,0.018544,21.5,-10.1875,25.5625,1,2024-11-14,11:04:41.179095
3.18,8.96,-0.26,-0.088357,0.073086,-0.054542,20.375,-10.875,25.5625,1,2024-11-14,11:04:41.395960
3.16,8.96,0.01,0.033816,-0.173442,0.020726,20.375,-11.25,26.75,1,2024-11-14,11:04:41.582854
3.22,9.56,-1.03,0.066541,-0.317432,-0.051269,20.375,-10.1875,25.5625,1,2024-11-14,11:04:41.802541
2.91,9.15,-0.82,-0.073086,0.025089,-0.022907,21.875,-10.1875,26.0625,1,2024-11-14,11:04:41.991448
3.01,9.15,-0.87,0.001091,0.051269,-0.071995,23.375,-11.25,25.6875,1,2024-11-14,11:04:42.224566
2.95,9.48,-1.12,-0.042542,0.088357,-0.071995,22.5625,-9.5,24.875,1,2024-11-14,11:04:42.382474
3.04,9.13,-0.26,-0.094902,-0.050178,0.09163,22.1875,-10.1875,24.875,1,2024-11-14,11:04:42.629331
3.02,9.26,-0.44,0.057814,0.081812,-0.02618,23.0,-11.25,23.6875,1,2024-11-14,11:04:42.833629
2.9,9.27,-0.57,0.032725,0.116719,-0.046906,22.1875,-10.1875,25.5625,1,2024-11-14,11:04:43.022504
2.81,9.26,-0.47,-0.011999,0.054542,-0.034907,21.5,-10.1875,25.5625,1,2024-11-14,11:04:43.224540
2.74,9.23,-0.49,0.070904,0.081812,-0.053451,21.875,-9.5,26.0625,1,2024-11-14,11:04:43.412453
2.79,9.3,-0.56,0.020726,0.062177,-0.021817,21.1875,-9.75,26.375,1,2024-11-14,11:04:43.614338
2.62,9.31,-0.59,-0.002182,0.015272,-0.014181,20.0625,-9.5,27.25,1,2024-11-14,11:04:43.838339
2.69,9.29,-0.57,-0.02618,-0.031634,0.028362,21.1875,-9.0625,28.375,1,2024-11-14,11:04:44.057053
2.71,9.27,-0.54,-0.030543,-0.050178,0.018544,21.1875,-9.5,27.25,1,2024-11-14,11:04:44.245215
2.76,9.28,-0.51,-0.02618,-0.05236,0.02618,21.1875,-9.5,26.0625,1,2024-11-14,11:04:44.449117
2.81,9.28,-0.46,-0.017453,-0.050178,0.022907,21.5,-10.1875,26.75,1,2024-11-14,11:04:44.812503
2.81,9.26,-0.54,-0.014181,-0.040361,0.011999,21.875,-10.5625,25.25,1,2024-11-14,11:04:44.999906
2.82,9.25,-0.51,-0.021817,-0.061087,0.02618,21.5,-10.5625,24.875,1,2024-11-14,11:04:45.184831
2.86,9.23,-0.46,-0.014181,-0.029452,0.010908,21.5,-10.875,24.875,1,2024-11-14,11:04:45.388580
2.86,9.25,-0.49,0.007636,-0.001091,0.003272,22.1875,-10.5625,26.0625,1,2024-11-14,11:04:45.419547
2.87,9.25,-0.46,-0.010908,-0.001091,0.002182,22.1875,-10.875,25.5625,1,2024-11-14,11:04:45.688979
2.88,9.25,-0.43,0.018544,0.037088,-0.028362,23.0,-11.25,25.25,1,2024-11-14,11:04:45.878395
2.81,9.28,-0.48,0.033816,0.055632,-0.032725,21.1875,-10.5625,26.375,1,2024-11-14,11:04:46.189460
2.76,9.27,-0.56,0.020726,0.02618,-0.027271,21.5,-10.1875,26.0625,1,2024-11-14,11:04:46.407876
2.72,9.28,-0.5,-0.002182,0.015272,-0.008727,21.5,-9.5,27.25,1,2024-11-14,11:04:46.660809
2.67,9.31,-0.52,0.015272,0.073086,-0.033816,21.5,-9.75,26.0625,1,2024-11-14,11:04:46.768773
2.65,9.32,-0.56,0.0,-0.02618,0.020726,20.75,-9.5,26.0625,1,2024-11-14,11:04:46.909966
2.72,9.33,-0.52,-0.029452,-0.069813,0.023998,20.75,-9.75,27.25,1,2024-11-14,11:04:47.139857
2.76,9.25,-0.5,-0.020726,-0.028362,0.011999,20.75,-10.1875,27.25,1,2024-11-14,11:04:47.312794
2.74,9.25,-0.48,-0.010908,-0.031634,0.015272,21.5,-10.5625,26.0625,1,2024-11-14,11:04:47.512842
2.72,9.3,-0.52,-0.022907,0.040361,-0.020726,21.875,-10.1875,25.25,1,2024-11-14,11:04:47.710934
2.66,9.29,-0.43,-0.018544,0.015272,-0.010908,21.5,-10.875,26.375,1,2024-11-14,11:04:47.994876
2.65,9.23,-0.52,0.038179,-0.102538,-0.020726,21.5,-10.1875,26.0625,1,2024-11-14,11:04:48.245745
2.93,9.36,-0.49,-0.058905,0.031634,0.025089,21.5,-10.875,24.875,1,2024-11-14,11:04:48.466998
2.73,9.5,-0.09,-0.128718,0.164715,-0.058905,22.5625,-11.5625,25.6875,1,2024-11-14,11:04:48.530978
2.55,9.26,0.06,0.064359,0.02618,-0.061087,21.875,-12.0,25.25,1,2024-11-14,11:04:48.654891
2.57,9.3,-0.03,0.074176,-0.002182,-0.040361,20.75,-10.875,26.375,1,2024-11-14,11:04:48.842783
2.5,9.35,-0.32,0.020726,0.081812,-0.069813,20.75,-9.75,26.875,1,2024-11-14,11:04:49.045960
2.32,9.32,-0.09,-0.018544,0.068722,-0.030543,20.0625,-10.1875,27.25,1,2024-11-14,11:04:49.311733
2.3,9.38,-0.2,0.029452,0.006545,0.003272,20.75,-9.0625,27.375,1,2024-11-14,11:04:49.903663
2.42,9.42,-0.2,-0.030543,-0.049087,0.02618,20.375,-9.75,27.5625,1,2024-11-14,11:04:51.538878
2.33,9.32,-0.1,-0.028362,-0.056723,0.023998,20.375,-10.5625,27.375,1,2024-11-14,11:04:51.649816
2.46,9.42,-0.15,-0.005454,-0.066541,0.029452,20.75,-9.75,27.375,1,2024-11-14,11:04:51.695804
2.59,9.37,-0.06,-0.011999,-0.021817,0.009817,21.5,-10.5625,27.0,1,2024-11-14,11:04:51.758768
2.49,9.37,-0.12,-0.005454,-0.035997,0.005454,21.875,-9.75,26.5,1,2024-11-14,11:04:51.773760
2.52,9.36,-0.12,-0.009817,-0.030543,0.006545,21.1875,-10.5625,25.375,1,2024-11-14,11:04:51.869688
2.53,9.34,-0.14,0.006545,-0.023998,0.005454,20.75,-10.875,27.0,1,2024-11-14,11:04:51.900687
2.56,9.37,-0.17,-0.010908,-0.014181,0.009817,21.5,-10.5625,25.75,1,2024-11-14,11:04:51.947645
2.59,9.3,-0.1,-0.020726,-0.020726,-0.006545,21.875,-11.25,25.75,1,2024-11-14,11:04:51.962636
2.5,9.36,-0.18,0.015272,0.023998,-0.023998,21.875,-10.875,26.1875,1,2024-11-14,11:04:52.025555
2.51,9.33,-0.16,0.028362,0.056723,-0.020726,21.875,-10.5625,26.5,1,2024-11-14,11:04:52.025555
2.4,9.35,-0.21,0.035997,0.088357,-0.037088,21.1875,-10.1875,26.1875,1,2024-11-14,11:04:52.072528
2.39,9.39,-0.22,0.030543,0.083994,-0.020726,20.375,-9.75,26.5,1,2024-11-14,11:04:52.151468
2.35,9.36,-0.27,0.029452,0.058905,-0.020726,20.375,-9.75,27.0,1,2024-11-14,11:04:52.357368
2.33,9.38,-0.3,0.0,-0.010908,0.003272,20.0625,-9.5,27.0,1,2024-11-14,11:04:52.514442
2.31,9.39,-0.3,-0.035997,-0.058905,0.025089,20.75,-9.5,27.0,1,2024-11-14,11:04:52.717326
2.36,9.38,-0.21,-0.001091,-0.022907,0.005454,20.75,-9.5,27.0,1,2024-11-14,11:04:52.983692
2.47,9.37,-0.17,-0.004363,-0.02618,0.028362,20.375,-9.5,26.5,1,2024-11-14,11:04:53.157871
2.41,9.43,-0.38,-0.022907,-0.025089,0.009817,20.0625,-9.75,27.0,1,2024-11-14,11:04:53.377335
2.52,9.32,-0.12,-0.041452,-0.042542,0.005454,21.1875,-10.1875,27.0,1,2024-11-14,11:04:53.563948
2.46,9.33,-0.16,-0.003272,-0.02618,0.015272,20.75,-9.5,26.5,1,2024-11-14,11:04:53.847461
2.52,9.37,-0.15,-0.01309,-0.042542,0.018544,20.75,-10.5625,26.1875,1,2024-11-14,11:04:54.115298
2.51,9.34,-0.1,-0.017453,-0.033816,0.016362,21.1875,-10.5625,27.0,1,2024-11-14,11:04:54.146265
2.52,9.38,-0.11,0.003272,0.016362,-0.009817,21.1875,-10.875,25.75,1,2024-11-14,11:04:54.305174
2.49,9.4,-0.11,0.009817,0.053451,-0.020726,21.1875,-10.5625,26.5625,1,2024-11-14,11:04:54.508059
2.47,9.35,-0.12,0.022907,0.023998,-0.02618,21.5,-10.1875,26.5625,1,2024-11-14,11:04:54.708373
2.41,9.33,-0.14,0.010908,0.038179,-0.015272,21.5,-10.1875,27.0,1,2024-11-14,11:04:54.897302
2.38,9.35,-0.17,0.027271,0.051269,-0.019635,20.75,-9.5,26.5625,1,2024-11-14,11:04:55.085117
2.33,9.41,-0.24,0.021817,0.017453,-0.01309,20.0625,-9.5,27.6875,1,2024-11-14,11:04:55.412076
2.36,9.41,-0.29,-0.017453,-0.034907,0.020726,20.375,-10.1875,26.5625,1,2024-11-14,11:04:55.676568
2.37,9.39,-0.16,-0.023998,-0.034907,0.014181,20.75,-9.75,27.375,1,2024-11-14,11:04:55.956194
2.42,9.34,-0.15,-0.014181,-0.025089,0.009817,20.0625,-10.5625,27.0,1,2024-11-14,11:04:56.160544
2.42,9.35,-0.13,-0.020726,-0.046906,0.017453,21.5,-10.1875,26.1875,1,2024-11-14,11:04:56.224476
2.45,9.37,-0.16,-0.006545,-0.02618,0.005454,21.875,-10.875,26.5625,1,2024-11-14,11:04:56.334418
2.47,9.36,-0.13,-0.006545,-0.027271,0.009817,22.1875,-10.1875,26.1875,1,2024-11-14,11:04:56.538296
2.52,9.32,-0.08,-0.005454,-0.029452,0.002182,21.1875,-10.5625,26.5625,1,2024-11-14,11:04:56.720800
2.53,9.34,-0.07,-0.005454,-0.027271,0.017453,22.1875,-10.5625,25.375,1,2024-11-14,11:04:56.957709
2.49,9.33,-0.12,-0.009817,-0.019635,-0.002182,21.1875,-10.1875,25.75,1,2024-11-14,11:04:57.175536
2.48,9.37,-0.16,0.016362,0.030543,-0.011999,22.5625,-10.5625,25.375,1,2024-11-14,11:04:57.378437
2.45,9.38,-0.1,0.018544,0.050178,-0.020726,21.5,-10.875,26.5625,1,2024-11-14,11:04:57.533354
2.39,9.38,-0.2,0.032725,0.075267,-0.025089,21.5,-10.1875,26.1875,1,2024-11-14,11:04:57.784061
2.37,9.4,-0.22,0.029452,0.079631,-0.02618,20.375,-10.1875,27.375,1,2024-11-14,11:04:57.974975
2.29,9.37,-0.23,0.020726,0.085085,-0.031634,20.75,-9.0625,27.375,1,2024-11-14,11:04:58.164248
2.32,9.38,-0.23,-0.008727,-0.021817,0.014181,20.1875,-9.5,27.0,1,2024-11-14,11:04:58.384381
2.33,9.39,-0.11,-0.022907,-0.046906,0.017453,20.875,-10.1875,26.5625,1,2024-11-14,11:04:58.557286
2.33,9.39,-0.23,-0.008727,-0.034907,0.008727,20.375,-10.1875,28.5,1,2024-11-14,11:04:58.917206
2.39,9.37,-0.19,-0.025089,-0.046906,0.031634,20.375,-9.5,26.1875,1,2024-11-14,11:04:59.105123
2.38,9.37,-0.18,-0.007636,-0.022907,0.002182,21.1875,-9.75,27.0,1,2024-11-14,11:04:59.327894
2.45,9.38,-0.15,-0.01309,-0.035997,0.017453,20.75,-9.75,26.5625,1,2024-11-14,11:04:59.374868
2.47,9.34,-0.2,0.003272,0.008727,-0.001091,20.375,-10.1875,25.0,1,2024-11-14,11:04:59.530781
2.47,9.39,-0.21,-0.007636,0.008727,0.0,21.875,-9.75,27.6875,1,2024-11-14,11:04:59.733062
2.44,9.33,-0.17,-0.003272,0.017453,-0.006545,21.5,-11.25,25.375,1,2024-11-14,11:04:59.921555
2.5,9.39,-0.09,0.008727,0.008727,-0.008727,21.5,-10.5625,25.375,1,2024-11-14,11:05:00.134400
2.45,9.39,-0.15,0.016362,0.045815,-0.020726,21.1875,-10.875,27.0,1,2024-11-14,11:05:00.403401
2.38,9.41,-0.12,0.019635,0.063268,-0.02618,21.1875,-10.1875,27.375,1,2024-11-14,11:05:00.622271
2.36,9.36,-0.15,0.021817,0.064359,-0.025089,21.1875,-9.5,27.375,1,2024-11-14,11:05:00.800811
1.14,-2.36,-9.03,0.136354,0.041452,0.09163,28.6875,16.0,4.0,2,2024-11-14,11:05:18.064768
1.15,-2.35,-8.95,-0.002182,0.038179,0.020726,28.6875,15.6875,2.75,2,2024-11-14,11:05:18.123735
1.31,-2.21,-9.33,-0.014181,-0.040361,0.005454,28.6875,14.875,2.0,2,2024-11-14,11:05:18.124735
1.36,-2.22,-9.15,0.016362,-0.001091,-0.001091,29.0625,15.6875,2.375,2,2024-11-14,11:05:18.308678
1.27,-2.37,-9.17,-0.053451,-0.057814,-0.007636,28.6875,14.875,4.0,2,2024-11-14,11:05:18.526637
1.18,-2.35,-9.18,0.007636,-0.005454,-0.002182,28.6875,15.25,2.375,2,2024-11-14,11:05:18.730653
1.14,-2.46,-9.18,0.008727,0.016362,-0.016362,28.0,15.6875,2.75,2,2024-11-14,11:05:18.960726
1.13,-2.57,-9.22,0.030543,0.014181,-0.004363,28.0,15.25,1.5625,2,2024-11-14,11:05:19.244321
1.13,-2.57,-9.21,0.009817,0.016362,-0.007636,28.6875,14.875,1.25,2,2024-11-14,11:05:19.509044
1.13,-2.62,-9.19,0.01309,0.003272,-0.004363,29.0625,14.875,2.875,2,2024-11-14,11:05:19.712811
1.1,-2.69,-9.15,0.008727,0.007636,-0.007636,28.6875,14.875,1.6875,2,2024-11-14,11:05:19.898715
1.14,-2.66,-9.18,-0.003272,0.010908,-0.005454,28.6875,14.5,2.875,2,2024-11-14,11:05:20.066664
1.11,-2.71,-9.19,-0.02618,-0.008727,-0.003272,28.375,14.875,2.875,2,2024-11-14,11:05:20.287373
1.06,-2.71,-9.22,-0.022907,-0.021817,0.004363,28.0,15.25,2.0625,2,2024-11-14,11:05:20.487316
1.05,-2.81,-9.22,0.018544,-0.010908,-0.001091,29.5,15.25,2.875,2,2024-11-14,11:05:20.692542
1.03,-2.78,-9.2,-0.004363,0.009817,-0.005454,29.0625,14.5,2.0625,2,2024-11-14,11:05:20.892425
0.99,-2.8,-9.2,0.011999,0.002182,-0.001091,28.6875,14.875,1.25,2,2024-11-14,11:05:21.159857
1.0,-2.79,-9.23,0.004363,0.005454,-0.004363,29.0625,15.25,2.0625,2,2024-11-14,11:05:21.439141
1.0,-2.85,-9.21,0.007636,0.005454,-0.005454,29.5,15.25,3.25,2,2024-11-14,11:05:21.643628
0.98,-2.93,-9.19,0.010908,0.004363,-0.007636,28.6875,14.5,2.875,2,2024-11-14,11:05:21.705938
0.98,-2.95,-9.18,0.018544,0.009817,-0.006545,28.375,14.875,2.0,2,2024-11-14,11:05:21.859862
0.98,-3.02,-9.21,0.009817,0.004363,-0.003272,29.5,14.875,1.5625,2,2024-11-14,11:05:22.173739
0.99,-3.03,-9.19,0.021817,0.007636,-0.005454,29.5,14.5,2.375,2,2024-11-14,11:05:22.373770
0.98,-3.06,-9.15,0.015272,0.001091,-0.004363,28.6875,14.5,2.375,2,2024-11-14,11:05:22.531647
0.97,-3.1,-9.18,0.027271,0.006545,-0.005454,28.6875,14.5,1.1875,2,2024-11-14,11:05:22.733976
0.96,-3.09,-9.19,0.004363,0.010908,-0.007636,29.0625,14.5,1.5625,2,2024-11-14,11:05:22.939954
0.97,-3.07,-9.16,0.008727,0.010908,-0.006545,28.375,15.25,1.5625,2,2024-11-14,11:05:23.157311
0.97,-3.07,-9.18,0.014181,0.008727,-0.005454,28.6875,14.875,1.5625,2,2024-11-14,11:05:23.157311
0.96,-3.11,-9.19,-0.010908,0.003272,-0.002182,29.0625,14.1875,2.0,2,2024-11-14,11:05:23.379623
0.96,-3.09,-9.16,-0.002182,0.005454,-0.002182,28.375,15.6875,2.0,2,2024-11-14,11:05:23.597501
0.98,-3.08,-9.15,-0.005454,0.0,-0.003272,28.375,14.875,1.1875,2,2024-11-14,11:05:23.751632
0.96,-3.09,-9.17,0.0,-0.002182,-0.001091,29.5,14.875,2.0,2,2024-11-14,11:05:23.989166
0.97,-3.08,-9.17,-0.001091,0.002182,-0.003272,28.0,14.5,0.0,2,2024-11-14,11:05:24.208039
0.97,-3.08,-9.18,0.010908,0.0,0.001091,28.6875,15.25,1.1875,2,2024-11-14,11:05:24.598514
0.93,-3.1,-9.19,-0.008727,0.004363,0.001091,28.6875,15.25,0.75,2,2024-11-14,11:05:24.613503
0.93,-3.09,-9.17,0.017453,-0.002182,-0.002182,29.5,15.25,1.1875,2,2024-11-14,11:05:25.056813
0.94,-3.07,-9.21,0.003272,0.002182,0.001091,28.6875,15.25,1.5625,2,2024-11-14,11:05:25.385390
0.94,-3.1,-9.17,-0.008727,0.004363,-0.002182,28.6875,14.875,1.1875,2,2024-11-14,11:05:25.385390
0.94,-3.08,-9.17,-0.002182,0.007636,-0.002182,29.0625,14.1875,1.1875,2,2024-11-14,11:05:25.633247
0.94,-3.05,-9.18,-0.003272,0.001091,-0.001091,29.0625,14.875,0.75,2,2024-11-14,11:05:25.681224
0.95,-3.06,-9.19,0.004363,0.001091,-0.001091,28.6875,14.5,2.0,2,2024-11-14,11:05:25.808426
0.97,-3.05,-9.19,0.006545,0.006545,-0.001091,29.0625,15.25,2.375,2,2024-11-14,11:05:26.045115
0.94,-3.04,-9.2,-0.001091,0.002182,-0.002182,28.6875,15.25,0.75,2,2024-11-14,11:05:26.371281
0.97,-2.98,-9.19,-0.003272,0.006545,-0.003272,29.0625,15.25,1.1875,2,2024-11-14,11:05:26.557173
0.98,-2.97,-9.18,0.001091,0.002182,-0.002182,28.6875,15.25,1.5625,2,2024-11-14,11:05:26.863986
0.98,-2.98,-9.21,0.002182,-0.002182,-0.003272,28.6875,14.5,1.1875,2,2024-11-14,11:05:27.068874
0.97,-2.96,-9.17,-0.005454,0.001091,0.002182,29.0625,14.1875,1.1875,2,2024-11-14,11:05:27.115847
0.97,-2.95,-9.17,0.002182,-0.001091,0.001091,28.375,14.875,1.5625,2,2024-11-14,11:05:27.336029
0.96,-2.96,-9.19,-0.001091,0.003272,0.001091,28.6875,14.875,1.1875,2,2024-11-14,11:05:27.556692
0.97,-2.98,-9.24,0.001091,0.001091,-0.001091,29.5,15.25,1.1875,2,2024-11-14,11:05:27.817625
0.95,-3.02,-9.16,0.003272,-0.002182,0.001091,29.0625,14.5,1.1875,2,2024-11-14,11:05:27.987903
0.96,-3.02,-9.17,-0.005454,-0.001091,0.001091,29.5,15.25,1.1875,2,2024-11-14,11:05:28.051882
0.97,-3.0,-9.18,0.0,0.006545,0.001091,28.6875,14.5,1.1875,2,2024-11-14,11:05:28.191992
0.97,-3.0,-9.19,0.001091,0.0,0.001091,28.6875,14.5,1.1875,2,2024-11-14,11:05:28.457381
0.97,-3.0,-9.19,-0.006545,0.0,0.0,29.0625,14.875,2.0,2,2024-11-14,11:05:28.695913
0.98,-2.99,-9.18,-0.002182,-0.001091,0.0,28.6875,14.5,2.375,2,2024-11-14,11:05:28.917105
0.98,-3.0,-9.17,0.010908,0.002182,-0.003272,28.0,14.875,2.375,2,2024-11-14,11:05:29.071525
0.98,-3.02,-9.19,0.004363,-0.001091,0.001091,29.0625,14.875,0.75,2,2024-11-14,11:05:29.304402
0.99,-3.02,-9.2,0.001091,-0.002182,0.0,29.0625,15.25,2.375,2,2024-11-14,11:05:29.505384
0.99,-3.04,-9.18,0.004363,-0.006545,-0.001091,28.6875,14.875,0.75,2,2024-11-14,11:05:29.817431
1.0,-3.05,-9.14,0.001091,0.004363,-0.003272,28.375,14.875,2.0,2,2024-11-14,11:05:29.989552
0.98,-3.05,-9.17,0.0,0.002182,-0.001091,28.6875,15.25,1.5625,2,2024-11-14,11:05:30.240442
0.98,-3.08,-9.16,0.004363,0.001091,-0.001091,28.6875,14.5,2.0,2,2024-11-14,11:05:30.300962
0.98,-3.11,-9.17,-0.003272,0.001091,-0.001091,28.6875,14.875,1.5625,2,2024-11-14,11:05:30.458844
0.98,-3.11,-9.18,-0.003272,0.002182,0.001091,28.6875,14.1875,2.375,2,2024-11-14,11:05:30.663004
0.98,-3.1,-9.17,-0.003272,-0.002182,0.0,29.0625,14.1875,1.5625,2,2024-11-14,11:05:30.804811
1.0,-3.12,-9.15,0.007636,0.0,-0.001091,29.5,14.875,1.5625,2,2024-11-14,11:05:31.047965
0.96,-3.14,-9.17,-0.004363,0.002182,0.0,29.875,14.875,1.5625,2,2024-11-14,11:05:31.248069
0.97,-3.12,-9.17,-0.007636,0.0,0.0,29.0625,14.1875,1.5625,2,2024-11-14,11:05:31.435982
0.99,-3.16,-9.19,0.001091,-0.001091,0.0,29.0625,14.875,0.75,2,2024-11-14,11:05:31.652087
0.96,-3.15,-9.17,-0.002182,0.0,0.001091,29.0625,14.875,2.0,2,2024-11-14,11:05:31.857961
0.98,-3.17,-9.18,-0.002182,-0.001091,0.002182,29.0625,14.875,1.5625,2,2024-11-14,11:05:32.050488
0.96,-3.11,-9.16,-0.005454,0.001091,0.0,28.6875,14.1875,1.1875,2,2024-11-14,11:05:32.283191
0.98,-3.11,-9.18,0.0,0.001091,0.001091,29.5,14.875,2.0,2,2024-11-14,11:05:32.501068
0.97,-3.08,-9.14,-0.002182,0.002182,-0.001091,29.0625,14.5,1.5625,2,2024-11-14,11:05:32.940638
0.97,-3.14,-9.16,0.008727,-0.002182,0.0,28.0,14.875,2.375,2,2024-11-14,11:05:33.002601
0.97,-3.12,-9.16,0.005454,0.0,0.002182,28.375,14.5,0.75,2,2024-11-14,11:05:33.201408
1.0,-3.14,-9.16,0.004363,0.001091,-0.001091,28.6875,14.5,2.0,2,2024-11-14,11:05:33.435272
0.98,-3.16,-9.19,0.006545,-0.003272,0.001091,28.375,14.875,1.5625,2,2024-11-14,11:05:33.604957
0.96,-3.11,-9.18,0.008727,0.0,0.0,28.6875,14.5,0.75,2,2024-11-14,11:05:33.779042
0.98,-3.13,-9.18,-0.002182,-0.002182,0.001091,29.5,14.5,1.1875,2,2024-11-14,11:05:33.997923
0.98,-3.18,-9.17,0.008727,-0.008727,0.0,29.0625,15.25,2.375,2,2024-11-14,11:05:34.059137
0.96,-3.21,-9.13,-0.007636,-0.009817,0.002182,29.0625,14.5,1.5625,2,2024-11-14,11:05:34.229135
0.96,-3.26,-9.15,-0.001091,-0.007636,0.006545,29.0625,14.5,0.75,2,2024-11-14,11:05:34.447107
0.95,-3.24,-9.15,0.005454,-0.008727,0.005454,29.0625,14.5,1.1875,2,2024-11-14,11:05:34.651114
0.94,-3.21,-9.2,-0.001091,-0.004363,0.002182,28.6875,14.875,0.75,2,2024-11-14,11:05:34.839528
0.93,-3.25,-9.2,0.002182,-0.003272,0.001091,29.0625,15.25,0.75,2,2024-11-14,11:05:35.036923
0.92,-3.27,-9.19,-0.006545,-0.002182,0.002182,28.6875,14.1875,1.1875,2,2024-11-14,11:05:35.326893
0.93,-3.3,-9.16,0.002182,-0.01309,0.004363,29.0625,14.5,2.0,2,2024-11-14,11:05:35.625733
0.9,-3.34,-9.17,-0.001091,-0.002182,-0.002182,29.0625,14.875,0.375,2,2024-11-14,11:05:35.876723
0.93,-3.38,-9.19,-0.015272,0.007636,0.0,28.375,14.1875,0.75,2,2024-11-14,11:05:36.049201
0.92,-3.29,-9.2,-0.002182,0.007636,0.001091,28.6875,14.5,0.75,2,2024-11-14,11:05:36.065208
0.94,-3.28,-9.15,0.005454,0.003272,0.0,29.0625,14.5,1.1875,2,2024-11-14,11:05:36.284664
0.94,-3.28,-9.17,-0.001091,0.008727,-0.003272,28.6875,14.5,1.1875,2,2024-11-14,11:05:36.453567
0.95,-3.28,-9.18,-0.001091,0.003272,0.002182,28.375,14.875,1.5625,2,2024-11-14,11:05:36.671442
0.95,-3.29,-9.18,0.015272,-0.001091,0.0,28.375,14.5,0.75,2,2024-11-14,11:05:36.859972
0.97,-3.29,-9.2,-0.008727,0.002182,-0.001091,28.375,14.1875,2.0,2,2024-11-14,11:05:37.092839
0.94,-3.29,-9.16,-0.019635,-0.006545,0.003272,28.6875,14.875,2.75,2,2024-11-14,11:05:37.295066
0.95,-3.25,-9.18,-0.011999,-0.004363,0.0,28.6875,14.5,1.5625,2,2024-11-14,11:05:37.464984
0.96,-3.2,-9.18,-0.009817,-0.007636,0.002182,29.0625,14.875,0.75,2,2024-11-14,11:05:37.700869
0.95,-3.26,-9.19,-0.009817,-0.003272,0.001091,29.0625,15.6875,1.1875,2,2024-11-14,11:05:37.935159
0.93,-3.24,-9.2,-0.006545,0.001091,0.0,28.6875,14.875,0.75,2,2024-11-14,11:05:38.216786
0.92,-3.31,-9.16,-0.004363,-0.003272,0.001091,28.6875,15.6875,1.5625,2,2024-11-14,11:05:38.422061
0.92,-3.29,-9.18,0.002182,0.0,0.001091,28.6875,14.875,1.5625,2,2024-11-14,11:05:38.612428
0.96,-3.34,-9.17,-0.001091,-0.001091,0.001091,28.6875,15.25,1.5625,2,2024-11-14,11:05:38.862754
0.91,-3.35,-9.17,0.002182,0.0,-0.001091,28.6875,15.25,1.5625,2,2024-11-14,11:05:39.147127
0.93,-3.4,-9.17,0.003272,0.006545,0.0,28.6875,15.25,1.5625,2,2024-11-14,11:05:39.415914
0.93,-3.42,-9.16,0.004363,0.001091,0.001091,28.6875,15.25,0.375,2,2024-11-14,11:05:39.493857
0.9,-3.41,-9.16,0.007636,0.004363,0.0,29.0625,14.5,1.1875,2,2024-11-14,11:05:39.601117
0.91,-3.4,-9.16,0.002182,0.0,-0.002182,28.6875,14.5,2.375,2,2024-11-14,11:05:39.961253
0.93,-3.4,-9.18,0.002182,-0.003272,0.0,28.375,15.25,0.75,2,2024-11-14,11:05:40.025202
0.92,-3.38,-9.18,-0.007636,-0.002182,0.0,29.5,15.25,1.5625,2,2024-11-14,11:05:40.388185
0.93,-3.37,-9.14,-0.015272,-0.001091,-0.001091,28.375,15.25,2.375,2,2024-11-14,11:05:40.570681
0.93,-3.33,-9.14,-0.016362,-0.008727,0.003272,29.5,14.5,1.5625,2,2024-11-14,11:05:40.634645
0.91,-3.34,-9.16,-0.011999,-0.006545,0.002182,29.5,14.5,1.5625,2,2024-11-14,11:05:40.789572
0.9,-3.36,-9.15,-0.007636,-0.004363,0.001091,28.6875,15.6875,1.5625,2,2024-11-14,11:05:40.977961
0.9,-3.35,-9.17,-0.002182,-0.003272,0.0,28.6875,15.25,1.5625,2,2024-11-14,11:05:41.198840
0.9,-3.35,-9.18,-0.005454,-0.001091,-0.001091,28.375,15.6875,2.0,2,2024-11-14,11:05:41.385271
0.89,-3.44,-9.18,-0.001091,-0.005454,-0.002182,28.6875,15.6875,0.75,2,2024-11-14,11:05:41.591054
0.9,-3.37,-9.14,-0.006545,0.003272,-0.001091,27.6875,15.25,1.5625,2,2024-11-14,11:05:41.821928
0.89,-3.36,-9.19,-0.010908,0.003272,-0.001091,28.375,14.875,2.0,2,2024-11-14,11:05:42.036990
0.9,-3.38,-9.19,0.0,0.002182,0.004363,28.6875,14.5,0.75,2,2024-11-14,11:05:42.239803
0.89,-3.38,-9.18,0.003272,0.001091,0.001091,28.6875,15.25,0.75,2,2024-11-14,11:05:42.520874
0.92,-3.37,-9.18,-0.001091,0.001091,0.0,28.0,14.875,0.375,2,2024-11-14,11:05:42.693775
0.92,-3.36,-9.17,0.001091,0.0,0.002182,28.6875,15.25,0.375,2,2024-11-14,11:05:42.940471
0.88,-3.38,-9.19,-0.008727,-0.001091,0.001091,28.375,14.875,0.75,2,2024-11-14,11:05:42.987460
0.9,-3.32,-9.17,-0.009817,0.002182,0.0,28.6875,14.5,1.5625,2,2024-11-14,11:05:43.146355
0.89,-3.28,-9.19,-0.015272,0.001091,0.001091,28.6875,14.5,1.5625,2,2024-11-14,11:05:43.430212
0.88,-3.32,-9.17,-0.003272,0.0,0.0,28.6875,15.6875,0.375,2,2024-11-14,11:05:43.646475
0.9,-3.32,-9.18,-0.003272,-0.002182,-0.001091,29.5,14.875,1.1875,2,2024-11-14,11:05:43.852657
0.89,-3.32,-9.19,0.0,0.002182,-0.001091,28.375,14.875,2.0,2,2024-11-14,11:05:44.054887
0.88,-3.36,-9.19,-0.001091,0.001091,0.0,29.5,14.1875,0.375,2,2024-11-14,11:05:44.224791
0.91,-3.37,-9.16,0.004363,0.002182,0.001091,29.0625,14.875,2.375,2,2024-11-14,11:05:44.487837
0.87,-3.38,-9.2,-0.004363,0.002182,0.0,28.6875,14.875,2.0,2,2024-11-14,11:05:44.676755
0.91,-3.41,-9.16,0.0,0.001091,0.001091,29.0625,15.6875,1.1875,2,2024-11-14,11:05:44.723711
0.9,-3.44,-9.16,-0.003272,0.0,0.0,28.0,14.5,1.1875,2,2024-11-14,11:05:44.850653
0.9,-3.43,-9.16,0.0,-0.003272,0.001091,27.6875,14.875,1.5625,2,2024-11-14,11:05:45.131570
0.9,-3.44,-9.17,0.01309,-0.003272,0.0,28.6875,14.875,1.5625,2,2024-11-14,11:05:45.302457
0.89,-3.39,-9.17,-0.001091,0.003272,-0.002182,28.6875,15.25,2.0,2,2024-11-14,11:05:45.562873
0.89,-3.39,-9.16,-0.001091,-0.001091,0.0,29.5,15.25,1.1875,2,2024-11-14,11:05:45.780770
0.88,-3.31,-9.19,0.003272,-0.004363,0.001091,29.0625,14.1875,0.0,2,2024-11-14,11:05:46.000625
0.9,-3.33,-9.18,-0.002182,0.0,0.002182,29.0625,14.5,1.5625,2,2024-11-14,11:05:46.171023
0.88,-3.34,-9.19,-0.005454,0.001091,-0.002182,29.0625,15.25,0.75,2,2024-11-14,11:05:46.423128
0.88,-3.38,-9.15,0.002182,-0.001091,0.002182,29.5,14.1875,1.1875,2,2024-11-14,11:05:46.754446
0.88,-3.38,-9.17,-0.014181,0.001091,0.0,28.0,14.1875,1.1875,2,2024-11-14,11:05:46.987316
0.88,-3.35,-9.16,-0.002182,0.001091,-0.001091,28.6875,14.5,0.375,2,2024-11-14,11:05:47.004307
0.91,-3.35,-9.19,0.0,-0.002182,0.002182,28.375,15.25,1.1875,2,2024-11-14,11:05:47.220695
0.88,-3.4,-9.17,0.004363,0.001091,0.0,28.375,14.875,1.1875,2,2024-11-14,11:05:47.408684
0.89,-3.42,-9.19,-0.003272,0.003272,0.001091,29.0625,14.5,0.75,2,2024-11-14,11:05:47.627046
0.91,-3.39,-9.18,0.002182,-0.002182,0.001091,28.6875,15.6875,1.1875,2,2024-11-14,11:05:47.814938
0.88,-3.43,-9.18,-0.004363,0.001091,0.0,28.6875,14.875,0.75,2,2024-11-14,11:05:48.127441
0.87,-3.43,-9.19,-0.001091,0.001091,-0.001091,28.6875,15.25,1.1875,2,2024-11-14,11:05:48.358308
0.87,-3.47,-9.17,0.002182,0.002182,0.0,28.6875,15.6875,1.5625,2,2024-11-14,11:05:48.635107
0.89,-3.43,-9.19,0.003272,-0.001091,0.001091,29.5,14.875,2.375,2,2024-11-14,11:05:48.666090
0.88,-3.41,-9.16,-0.010908,-0.002182,0.0,29.5,14.5,0.375,2,2024-11-14,11:05:48.852064
0.86,-3.28,-9.18,-0.014181,0.002182,0.003272,29.0625,14.875,1.6875,2,2024-11-14,11:05:49.070084
0.88,-3.25,-9.2,0.004363,0.001091,0.0,28.0,14.5,2.0625,2,2024-11-14,11:05:49.336103
0.89,-3.27,-9.17,0.002182,0.001091,0.001091,29.0625,15.25,1.6875,2,2024-11-14,11:05:49.570054
0.9,-3.24,-9.2,0.001091,0.004363,0.001091,28.6875,15.25,0.875,2,2024-11-14,11:05:49.762380
0.89,-3.24,-9.18,0.006545,0.002182,0.001091,29.5,14.5,1.6875,2,2024-11-14,11:05:49.825360
0.87,-3.31,-9.19,0.005454,0.003272,0.001091,29.0625,14.875,0.875,2,2024-11-14,11:05:49.999261
0.87,-3.28,-9.17,0.002182,0.0,0.002182,29.5,15.25,2.0625,2,2024-11-14,11:05:50.200351
0.87,-3.3,-9.17,0.001091,-0.001091,0.0,29.0625,14.875,1.25,2,2024-11-14,11:05:50.385258
0.88,-3.28,-9.2,0.0,0.0,0.001091,29.0625,14.1875,0.5,2,2024-11-14,11:05:50.575137
0.9,-3.28,-9.19,0.002182,0.0,0.002182,29.0625,14.5,1.6875,2,2024-11-14,11:05:50.824288
0.88,-3.3,-9.22,-0.001091,-0.001091,-0.001091,28.6875,14.875,1.25,2,2024-11-14,11:05:50.997187
0.88,-3.33,-9.19,0.001091,0.0,-0.001091,29.5,14.5,0.5625,2,2024-11-14,11:05:51.245158
0.89,-3.33,-9.21,-0.004363,0.001091,-0.001091,29.875,14.875,1.6875,2,2024-11-14,11:05:51.397073
0.88,-3.34,-9.18,-0.003272,0.0,-0.001091,29.875,14.5,1.6875,2,2024-11-14,11:05:51.599968
0.88,-3.32,-9.19,0.0,0.001091,0.002182,29.0625,14.875,1.25,2,2024-11-14,11:05:52.068326
0.87,-3.34,-9.19,-0.004363,-0.002182,0.001091,29.5,14.875,1.6875,2,2024-11-14,11:05:52.256040
0.88,-3.35,-9.16,0.003272,-0.002182,-0.001091,29.0625,15.25,1.6875,2,2024-11-14,11:05:52.425949
0.87,-3.35,-9.17,0.007636,0.0,-0.001091,28.6875,16.0,0.0625,2,2024-11-14,11:05:52.441940
0.88,-3.34,-9.19,-0.007636,0.003272,-0.001091,28.375,14.5,0.5625,2,2024-11-14,11:05:52.629003
0.89,-3.33,-9.19,-0.003272,0.004363,0.0,28.375,14.875,2.0625,2,2024-11-14,11:05:52.828768
0.88,-3.35,-9.21,-0.004363,-0.002182,0.0,28.375,14.875,2.0625,2,2024-11-14,11:05:53.199588
0.88,-3.33,-9.19,0.0,-0.002182,0.001091,29.5,15.25,0.5625,2,2024-11-14,11:05:53.497058
0.89,-3.34,-9.2,-0.003272,0.0,0.002182,29.0625,15.6875,0.5,2,2024-11-14,11:05:53.700672
0.88,-3.35,-9.19,0.002182,-0.002182,0.001091,28.0,15.25,2.0625,2,2024-11-14,11:05:53.764619
0.88,-3.35,-9.19,0.002182,-0.003272,-0.001091,29.0625,14.875,0.875,2,2024-11-14,11:05:53.859358
0.89,-3.33,-9.19,-0.008727,0.0,-0.001091,28.6875,14.875,0.5625,2,2024-11-14,11:05:54.066254
0.87,-3.29,-9.19,-0.007636,0.006545,-0.002182,28.375,14.5,1.25,2,2024-11-14,11:05:54.269667
0.88,-3.26,-9.18,-0.001091,0.004363,-0.003272,28.375,14.875,0.5,2,2024-11-14,11:05:54.535994
0.88,-3.26,-9.19,-0.005454,0.003272,0.0,28.6875,15.25,1.25,2,2024-11-14,11:05:54.688916
0.87,-3.27,-9.2,0.0,0.001091,0.001091,29.0625,15.25,0.5625,2,2024-11-14,11:05:54.909949
0.89,-3.27,-9.19,-0.001091,0.001091,0.0,28.375,14.875,1.25,2,2024-11-14,11:05:55.146121
0.87,-3.27,-9.21,-0.002182,0.002182,0.001091,29.5,15.25,1.6875,2,2024-11-14,11:05:55.317025
0.88,-3.27,-9.19,0.001091,0.002182,-0.001091,28.375,14.1875,0.0625,2,2024-11-14,11:05:55.565394
0.87,-3.27,-9.2,-0.001091,0.0,0.001091,28.375,15.6875,0.875,2,2024-11-14,11:05:55.918436
0.86,-3.31,-9.18,0.003272,0.001091,0.001091,28.6875,14.875,0.875,2,2024-11-14,11:05:55.950416
0.87,-3.35,-9.19,0.0,0.002182,0.002182,28.375,15.25,0.875,2,2024-11-14,11:05:56.138309
0.88,-3.38,-9.2,0.003272,-0.002182,0.002182,28.6875,14.875,1.6875,2,2024-11-14,11:05:56.170294
0.86,-3.4,-9.18,0.002182,0.003272,0.0,29.0625,15.25,1.6875,2,2024-11-14,11:05:56.308213
0.88,-3.38,-9.19,0.003272,0.002182,0.001091,29.0625,15.25,1.25,2,2024-11-14,11:05:56.573458
0.88,-3.38,-9.18,-0.004363,0.0,-0.001091,28.6875,14.875,0.5,2,2024-11-14,11:05:56.932499
0.89,-3.44,-9.17,-0.004363,-0.002182,0.0,29.0625,15.25,0.875,2,2024-11-14,11:05:57.183356
0.88,-3.41,-9.19,-0.006545,-0.001091,0.0,28.6875,14.875,1.25,2,2024-11-14,11:05:57.383554
0.91,-3.37,-9.18,-0.002182,-0.002182,0.0,29.0625,15.6875,0.0625,2,2024-11-14,11:05:57.432155
0.91,-3.33,-9.17,0.003272,0.001091,-0.001091,29.0625,14.1875,0.875,2,2024-11-14,11:05:57.575073
0.89,-3.38,-9.19,-0.001091,-0.004363,-0.001091,28.0,14.875,0.0625,2,2024-11-14,11:05:57.760965
0.88,-3.35,-9.21,-0.003272,-0.002182,-0.001091,29.0625,15.25,1.6875,2,2024-11-14,11:05:57.948451
0.9,-3.33,-9.15,-0.017453,-0.002182,-0.001091,29.0625,14.875,1.25,2,2024-11-14,11:05:58.197310
0.9,-3.28,-9.18,-0.010908,0.003272,-0.001091,29.0625,14.5,1.25,2,2024-11-14,11:05:58.510151
0.91,-3.28,-9.17,-0.022907,0.0,-0.001091,28.375,14.1875,0.875,2,2024-11-14,11:05:58.663738
0.89,-3.22,-9.22,-0.001091,0.002182,0.002182,28.75,14.5,1.75,2,2024-11-14,11:05:58.943847
0.89,-3.25,-9.22,-0.002182,-0.001091,0.001091,29.0625,14.875,0.875,2,2024-11-14,11:05:59.179436
0.9,-3.16,-9.18,-0.010908,0.004363,0.0,28.375,14.875,2.0625,2,2024-11-14,11:05:59.431902
0.88,-3.19,-9.21,0.006545,-0.001091,0.002182,29.5,14.875,1.75,2,2024-11-14,11:05:59.463696
0.91,-3.19,-9.19,-0.004363,0.004363,0.0,29.5,14.875,0.875,2,2024-11-14,11:05:59.635569
0.89,-3.18,-9.24,-0.005454,0.002182,-0.001091,30.1875,14.875,0.75,2,2024-11-14,11:05:59.884550
0.93,-3.18,-9.26,-0.004363,0.001091,-0.003272,29.875,14.5,0.875,2,2024-11-14,11:05:59.996086
0.98,-3.25,-9.25,-0.03927,0.008727,-0.007636,29.0625,14.5,2.5,2,2024-11-14,11:06:00.217986
0.95,-3.25,-9.23,0.032725,0.008727,0.0,29.5,15.25,0.875,2,2024-11-14,11:06:00.500046
0.92,-3.27,-9.2,-0.005454,0.004363,-0.001091,28.375,15.25,0.875,2,2024-11-14,11:06:00.637680
0.95,-3.2,-9.24,0.005454,0.001091,-0.004363,28.375,15.25,1.25,2,2024-11-14,11:06:00.852561
0.97,-3.21,-9.22,-0.002182,0.0,0.002182,28.6875,14.5,1.25,2,2024-11-14,11:06:01.053732
0.94,-3.22,-9.21,0.0,-0.002182,0.002182,29.5,14.875,1.25,2,2024-11-14,11:06:01.366554
0.93,-3.23,-9.2,-0.001091,0.002182,-0.001091,28.75,15.25,1.75,2,2024-11-14,11:06:01.568767
0.94,-3.22,-9.18,-0.001091,0.003272,0.0,28.375,14.875,0.5625,2,2024-11-14,11:06:01.583759
0.97,-3.21,-9.22,-0.005454,-0.004363,0.0,29.0625,15.25,1.75,2,2024-11-14,11:06:01.819015
0.96,-3.21,-9.2,-0.005454,-0.004363,-0.001091,28.375,14.875,2.0625,2,2024-11-14,11:06:02.084386
0.97,-3.22,-9.2,0.008727,-0.001091,0.0,28.6875,14.875,1.75,2,2024-11-14,11:06:02.318024
0.94,-3.17,-9.21,-0.011999,0.008727,0.0,29.0625,14.5,2.0625,2,2024-11-14,11:06:02.613671
0.96,-3.15,-9.2,-0.006545,0.001091,-0.001091,28.6875,14.5,0.875,2,2024-11-14,11:06:02.799565
0.97,-3.12,-9.2,-0.009817,0.011999,-0.002182,27.6875,14.1875,0.5625,2,2024-11-14,11:06:02.799565
0.98,-3.15,-9.22,0.003272,0.003272,-0.001091,29.0625,15.25,2.875,2,2024-11-14,11:06:02.973604
0.98,-3.15,-9.2,-0.001091,-0.005454,0.0,28.75,15.6875,0.875,2,2024-11-14,11:06:03.175468
0.99,-3.17,-9.22,0.003272,-0.006545,0.0,29.0625,14.875,0.0625,2,2024-11-14,11:06:03.483796
0.98,-3.22,-9.19,-0.002182,-0.004363,0.0,29.0625,15.25,0.875,2,2024-11-14,11:06:03.716696
0.98,-3.17,-9.19,-0.004363,0.002182,0.004363,29.0625,14.5,2.0625,2,2024-11-14,11:06:03.887615
1.0,-3.14,-9.17,0.007636,0.005454,0.0,28.0,14.1875,2.0625,2,2024-11-14,11:06:04.121631
1.0,-3.18,-9.2,-0.005454,-0.006545,0.0,29.0625,15.25,0.5625,2,2024-11-14,11:06:04.308817
1.02,-3.21,-9.19,0.009817,0.001091,0.001091,28.75,15.25,0.5625,2,2024-11-14,11:06:04.512214
0.98,-3.2,-9.19,-0.005454,0.005454,-0.004363,28.6875,15.6875,2.875,2,2024-11-14,11:06:04.805493
1.0,-3.2,-9.18,-0.007636,-0.008727,0.002182,29.5,14.875,0.0625,2,2024-11-14,11:06:05.085326
1.02,-3.24,-9.17,0.001091,0.003272,-0.002182,28.75,14.875,2.5,2,2024-11-14,11:06:05.256595
1.02,-3.26,-9.18,0.016362,-0.001091,-0.002182,28.75,14.5,0.5625,2,2024-11-14,11:06:05.288576
1.0,-3.28,-9.17,0.021817,0.0,-0.009817,29.5,14.5,1.25,2,2024-11-14,11:06:05.445046
1.03,-3.26,-9.15,-0.006545,-0.010908,0.0,28.75,15.25,2.5,2,2024-11-14,11:06:05.648443
0.99,-3.25,-9.2,-0.015272,-0.005454,-0.001091,29.875,15.25,2.5,2,2024-11-14,11:06:05.832202
0.98,-3.26,-9.18,-0.016362,0.001091,0.0,28.75,14.875,1.25,2,2024-11-14,11:06:06.064104
0.98,-3.23,-9.18,-0.006545,-0.005454,0.002182,28.375,15.25,0.875,2,2024-11-14,11:06:06.270211
1.0,-3.21,-9.18,-0.005454,0.0,-0.001091,29.875,14.875,2.0625,2,2024-11-14,11:06:06.439131
1.01,-3.21,-9.16,-0.014181,-0.003272,-0.004363,29.0625,14.875,2.5,2,2024-11-14,11:06:06.688081
0.98,-3.2,-9.2,-0.008727,-0.001091,0.001091,28.75,14.875,1.75,2,2024-11-14,11:06:06.886735
0.98,-3.25,-9.17,0.004363,-0.004363,0.002182,28.75,14.875,1.75,2,2024-11-14,11:06:07.060650
0.97,-3.23,-9.18,0.009817,-0.002182,0.002182,29.5,14.5,1.25,2,2024-11-14,11:06:07.278439
0.95,-3.24,-9.18,0.018544,-0.005454,0.004363,28.375,15.25,0.5625,2,2024-11-14,11:06:07.496322
0.97,-3.27,-9.16,0.011999,-0.009817,0.004363,28.75,15.25,1.25,2,2024-11-14,11:06:07.698198
0.95,-3.3,-9.19,0.001091,-0.004363,0.005454,28.375,14.875,0.875,2,2024-11-14,11:06:08.073071
0.96,-3.32,-9.19,0.001091,-0.002182,0.003272,28.375,15.6875,0.875,2,2024-11-14,11:06:08.385134
0.93,-3.31,-9.17,0.002182,0.009817,-0.003272,28.375,15.25,0.875,2,2024-11-14,11:06:08.493073
0.94,-3.27,-9.19,0.003272,0.002182,0.001091,28.75,15.25,1.75,2,2024-11-14,11:06:08.493073
0.97,-3.29,-9.17,0.001091,0.005454,0.002182,29.5,14.875,0.5625,2,2024-11-14,11:06:08.742928
0.96,-3.27,-9.16,-0.006545,0.011999,0.001091,28.75,15.25,1.25,2,2024-11-14,11:06:08.948046
0.98,-3.28,-9.17,0.004363,0.001091,0.002182,28.375,16.0,1.25,2,2024-11-14,11:06:09.149002
0.96,-3.19,-9.15,-0.006545,0.002182,0.0,29.0625,15.25,0.875,2,2024-11-14,11:06:09.460202
0.98,-3.2,-9.18,-0.004363,-0.004363,0.003272,28.75,15.25,2.0625,2,2024-11-14,11:06:09.632087
0.96,-3.22,-9.18,0.002182,0.003272,0.0,29.0625,14.875,2.0625,2,2024-11-14,11:06:09.850822
0.97,-3.18,-9.18,0.003272,0.004363,-0.001091,29.0625,14.875,1.75,2,2024-11-14,11:06:09.897796
0.96,-3.2,-9.2,-0.001091,0.0,-0.002182,28.75,14.875,1.75,2,2024-11-14,11:06:10.082673
0.98,-3.21,-9.18,0.0,0.002182,-0.001091,28.375,14.1875,0.875,2,2024-11-14,11:06:10.238589
0.97,-3.19,-9.16,0.005454,0.002182,-0.002182,29.0625,15.6875,1.25,2,2024-11-14,11:06:10.482486
0.93,-3.24,-9.18,0.005454,0.001091,0.0,29.5,14.875,0.5625,2,2024-11-14,11:06:10.842663
0.96,-3.27,-9.21,-0.006545,0.003272,-0.001091,29.0625,15.25,1.25,2,2024-11-14,11:06:10.873628
0.95,-3.27,-9.18,-0.008727,0.003272,-0.001091,29.875,15.25,2.5,2,2024-11-14,11:06:11.313376
0.93,-3.29,-9.18,-0.004363,0.003272,0.0,28.75,15.25,0.875,2,2024-11-14,11:06:11.485793
0.94,-3.27,-9.19,-0.001091,0.001091,0.0,29.5,14.1875,0.5625,2,2024-11-14,11:06:11.547756
0.95,-3.27,-9.19,0.005454,0.001091,-0.001091,28.75,14.5,0.875,2,2024-11-14,11:06:11.731710
0.95,-3.27,-9.16,0.002182,-0.002182,-0.001091,28.375,14.5,1.75,2,2024-11-14,11:06:11.888034
0.93,-3.27,-9.21,0.002182,0.003272,0.0,29.0625,14.875,2.5,2,2024-11-14,11:06:12.093930
0.95,-3.28,-9.16,0.010908,0.007636,0.001091,29.5,14.875,0.875,2,2024-11-14,11:06:12.312805
0.96,-3.27,-9.18,0.001091,0.003272,-0.001091,29.875,15.25,0.875,2,2024-11-14,11:06:12.544993
0.98,-3.25,-9.16,-0.006545,-0.005454,0.0,28.75,15.25,0.5625,2,2024-11-14,11:06:12.734427
0.96,-3.19,-9.18,-0.006545,-0.005454,-0.003272,28.375,14.5,0.875,2,2024-11-14,11:06:12.934644
0.98,-3.19,-9.2,0.003272,0.002182,-0.002182,28.75,14.875,0.875,2,2024-11-14,11:06:13.184544
0.95,-3.16,-9.19,-0.011999,-0.001091,0.0,28.375,15.25,1.25,2,2024-11-14,11:06:13.435564
0.96,-3.16,-9.19,0.001091,0.0,0.001091,29.5,14.875,1.75,2,2024-11-14,11:06:13.649513
0.97,-3.16,-9.21,-0.002182,-0.004363,0.001091,29.0625,14.5,2.5,2,2024-11-14,11:06:13.697486
0.96,-3.18,-9.18,-0.003272,-0.010908,0.0,28.375,15.25,2.0625,2,2024-11-14,11:06:13.867928
0.97,-3.22,-9.18,0.002182,0.005454,-0.001091,28.0,15.25,0.5625,2,2024-11-14,11:06:14.070775
0.94,-3.22,-9.19,0.001091,0.0,-0.001091,29.875,14.875,1.25,2,2024-11-14,11:06:14.364618
0.96,-3.21,-9.21,0.009817,0.003272,-0.003272,29.5,14.5,0.875,2,2024-11-14,11:06:15.104623
0.94,-3.24,-9.17,0.004363,0.001091,-0.002182,28.75,15.25,2.0625,2,2024-11-14,11:06:17.037008
0.93,-3.22,-9.2,0.005454,0.002182,0.0,28.75,15.6875,0.875,2,2024-11-14,11:06:17.097876
0.96,-3.23,-9.18,0.0,0.001091,-0.002182,28.375,14.875,0.875,2,2024-11-14,11:06:17.145833
0.96,-3.21,-9.2,0.0,-0.001091,0.002182,28.0,16.0,2.0625,2,2024-11-14,11:06:17.161839
0.96,-3.22,-9.17,0.001091,-0.001091,0.002182,28.375,15.25,2.0625,2,2024-11-14,11:06:17.161839
0.98,-3.24,-9.18,0.004363,-0.001091,-0.001091,28.75,15.6875,2.0625,2,2024-11-14,11:06:17.207795
0.93,-3.27,-9.15,-0.002182,-0.005454,0.002182,29.5,14.875,1.25,2,2024-11-14,11:06:17.223803
0.98,-3.25,-9.18,0.005454,-0.001091,0.0,29.0625,14.875,2.0625,2,2024-11-14,11:06:17.254785
0.97,-3.26,-9.18,0.003272,-0.001091,0.001091,28.75,14.875,1.75,2,2024-11-14,11:06:17.301758
0.95,-3.23,-9.17,-0.001091,0.003272,-0.001091,29.5,14.875,2.0625,2,2024-11-14,11:06:17.333740
0.93,-3.25,-9.18,-0.003272,0.001091,-0.002182,28.375,14.5,2.0625,2,2024-11-14,11:06:17.397704
0.95,-3.28,-9.19,0.0,0.002182,-0.001091,28.375,14.875,0.875,2,2024-11-14,11:06:17.460652
0.95,-3.27,-9.21,-0.006545,0.004363,-0.002182,28.0,14.5,1.75,2,2024-11-14,11:06:17.491634
0.94,-3.28,-9.17,0.004363,-0.001091,0.0,28.375,14.1875,2.875,2,2024-11-14,11:06:17.552615
0.94,-3.25,-9.16,0.003272,0.0,-0.001091,29.5,15.25,1.25,2,2024-11-14,11:06:18.417904
6.47,-0.32,7.88,-0.031634,-0.290161,0.069813,1.5,32.375,9.5625,3,2024-11-14,11:06:46.366801
6.89,-0.11,7.73,-0.093811,-0.290161,0.0,1.875,32.6875,9.25,3,2024-11-14,11:06:46.446572
5.71,-0.12,7.73,0.047997,0.246528,0.02618,1.0625,32.6875,9.25,3,2024-11-14,11:06:46.603876
5.46,-0.1,7.68,0.041452,0.172351,-0.05236,0.75,33.0625,8.0625,3,2024-11-14,11:06:46.836742
5.86,-0.28,7.83,0.041452,0.17017,-0.045815,-0.6875,32.6875,8.75,3,2024-11-14,11:06:47.052690
4.72,0.05,8.77,-0.014181,-0.063268,0.017453,-1.0625,32.6875,8.75,3,2024-11-14,11:06:47.288559
5.23,-0.08,8.33,-0.035997,-0.073086,0.004363,-1.0625,33.875,8.0625,3,2024-11-14,11:06:47.632984
5.35,-0.13,7.95,-0.017453,-0.047997,0.010908,-0.25,32.0,9.25,3,2024-11-14,11:06:47.864880
5.21,-0.05,8.21,-0.023998,-0.022907,0.008727,-0.6875,33.0625,8.5,3,2024-11-14,11:06:47.864880
5.22,-0.14,7.93,-0.022907,-0.064359,0.01309,-0.25,33.0625,9.25,3,2024-11-14,11:06:48.034020
5.43,-0.16,8.14,0.0,0.011999,-0.010908,0.0625,31.25,9.25,3,2024-11-14,11:06:48.232940
5.4,-0.17,8.08,-0.015272,-0.008727,-0.015272,-0.6875,32.375,9.5625,3,2024-11-14,11:06:48.497610
5.48,-0.15,7.99,0.0,-0.010908,-0.001091,-0.6875,32.6875,10.0,3,2024-11-14,11:06:48.747489
5.53,-0.06,8.13,0.006545,-0.069813,0.034907,-0.25,32.375,9.25,3,2024-11-14,11:06:49.007382
5.28,-0.18,8.06,0.0,-0.030543,-0.006545,-0.25,32.375,8.5,3,2024-11-14,11:06:49.008342
5.63,-0.1,7.86,0.006545,0.042542,-0.045815,-0.25,32.6875,7.5625,3,2024-11-14,11:06:49.181131
5.51,0.14,8.11,0.006545,0.040361,-0.001091,-1.0625,32.375,7.25,3,2024-11-14,11:06:49.464789
5.38,-0.04,8.15,0.009817,0.07854,0.016362,-0.25,32.6875,8.5,3,2024-11-14,11:06:49.695925
5.2,0.12,8.29,-0.040361,-0.127627,0.057814,-1.375,32.375,8.5,3,2024-11-14,11:06:49.912818
5.41,0.26,8.12,0.002182,-0.128718,0.069813,-1.0625,32.6875,8.75,3,2024-11-14,11:06:49.943800
6.12,5.48,12.49,0.549779,-0.128718,0.253073,0.375,32.0,10.75,3,2024-11-14,11:06:50.068517
5.7,-0.06,7.3,0.022907,-0.056723,0.05236,2.0,33.0625,8.75,3,2024-11-14,11:06:50.300944
4.43,-0.28,7.12,0.049087,0.410152,-0.222529,2.25,32.0,8.5,3,2024-11-14,11:06:50.499119
5.27,-0.28,8.0,-0.025089,0.054542,-0.02618,1.1875,31.25,9.5625,3,2024-11-14,11:06:50.779207
6.14,-0.35,7.99,-0.046906,-0.151625,0.047997,0.1875,31.375,8.75,3,2024-11-14,11:06:51.031195
5.73,0.06,7.8,0.021817,-0.003272,-0.014181,0.5,31.75,8.75,3,2024-11-14,11:06:51.205067
5.41,-0.46,8.02,-0.031634,0.015272,-0.001091,0.5,32.0625,8.0625,3,2024-11-14,11:06:51.532337
6.0,-0.1,7.73,-0.008727,-0.140717,0.05236,0.875,32.0625,9.5625,3,2024-11-14,11:06:51.706169
5.99,-0.34,7.83,-0.02618,0.031634,0.004363,2.0,31.6875,8.0625,3,2024-11-14,11:06:51.958006
5.44,-0.15,8.12,0.058905,0.118901,-0.041452,0.75,31.25,10.0,3,2024-11-14,11:06:52.005958
5.49,-0.1,7.86,0.022907,0.076358,-0.022907,0.1875,32.375,8.75,3,2024-11-14,11:06:52.148124
5.51,-0.11,8.06,0.018544,0.213803,-0.071995,1.1875,32.0,8.5,3,2024-11-14,11:06:52.367222
5.0,0.05,8.27,0.029452,0.19744,-0.040361,-1.375,32.75,7.5625,3,2024-11-14,11:06:52.558121
5.23,-0.02,8.22,-0.045815,-0.136354,0.034907,-0.25,32.0625,8.5,3,2024-11-14,11:06:52.821950
5.12,-0.04,8.31,-0.009817,-0.029452,0.0,0.375,32.0625,8.0625,3,2024-11-14,11:06:53.037962
5.18,0.02,8.17,-0.038179,-0.076358,-0.005454,-0.6875,32.0625,8.5,3,2024-11-14,11:06:53.255848
5.42,-0.15,8.22,-0.022907,-0.094902,-0.006545,-0.6875,32.75,9.25,3,2024-11-14,11:06:53.489160
5.5,0.0,7.87,-0.017453,-0.067632,0.015272,-0.6875,31.375,8.75,3,2024-11-14,11:06:53.677919
5.56,-0.15,7.88,-0.020726,0.009817,0.004363,0.375,31.75,8.5,3,2024-11-14,11:06:54.006823
5.73,-0.18,7.84,-0.003272,-0.07854,0.027271,0.75,32.0625,9.25,3,2024-11-14,11:06:54.223509
5.91,-0.3,7.75,0.010908,0.014181,-0.006545,0.75,31.375,8.0625,3,2024-11-14,11:06:54.439089
5.56,-0.1,7.74,0.019635,0.093811,-0.015272,1.0625,31.75,9.25,3,2024-11-14,11:06:54.518067
5.53,-0.16,7.92,0.011999,0.062177,-0.014181,0.75,32.0625,8.0625,3,2024-11-14,11:06:54.625665
5.67,-0.05,7.99,0.009817,0.051269,-0.018544,0.75,31.75,7.25,3,2024-11-14,11:06:54.827764
5.22,-0.01,8.18,0.016362,0.178896,-0.058905,0.375,32.75,8.0625,3,2024-11-14,11:06:55.017722
5.29,-0.01,8.05,-0.014181,-0.110174,0.025089,-0.6875,32.5,8.5,3,2024-11-14,11:06:55.268735
5.37,-0.02,8.18,-0.011999,-0.058905,0.017453,0.0625,32.0625,8.0625,3,2024-11-14,11:06:55.411632
5.43,-0.03,8.08,-0.020726,-0.102538,0.029452,-0.25,31.75,8.875,3,2024-11-14,11:06:55.612518
5.72,-0.16,7.85,-0.009817,-0.163625,0.071995,0.0625,33.0625,8.875,3,2024-11-14,11:06:55.820406
5.92,-0.19,7.74,-0.044724,-0.1309,0.020726,1.0625,32.6875,8.5,3,2024-11-14,11:06:56.066263
5.98,-0.23,7.74,-0.016362,-0.046906,0.009817,0.375,32.0,8.0625,3,2024-11-14,11:06:56.265878
6.1,-0.25,7.48,0.014181,-0.004363,-0.01309,1.0625,31.6875,8.5,3,2024-11-14,11:06:56.406840
5.87,-0.11,7.88,0.016362,0.116719,-0.011999,1.875,33.0625,8.875,3,2024-11-14,11:06:56.654679
5.85,-0.3,7.78,-0.040361,-0.111265,0.021817,0.75,32.6875,7.6875,3,2024-11-14,11:06:56.859074
5.8,-0.27,7.86,-0.001091,0.049087,-0.008727,0.75,31.25,8.0625,3,2024-11-14,11:06:57.045967
5.9,-0.27,7.7,0.011999,-0.177805,0.041452,1.0625,31.6875,8.75,3,2024-11-14,11:06:57.263606
6.25,-0.2,7.78,0.015272,-0.042542,-0.016362,1.0625,32.6875,8.0625,3,2024-11-14,11:06:57.495474
5.86,-0.1,7.84,0.025089,0.18326,-0.06545,1.5,31.6875,7.5625,3,2024-11-14,11:06:57.697359
5.82,0.04,8.12,0.033816,0.14399,-0.045815,0.75,32.0,7.5625,3,2024-11-14,11:06:57.897995
5.36,0.14,8.05,0.001091,0.074176,-0.027271,0.375,33.0625,7.5625,3,2024-11-14,11:06:58.100880
5.15,0.01,8.09,0.027271,0.172351,-0.034907,-0.25,32.375,7.5625,3,2024-11-14,11:06:58.350623
5.01,0.29,8.2,-0.003272,0.11781,-0.018544,-0.5625,32.0,7.25,3,2024-11-14,11:06:58.614499
4.68,0.18,8.2,-0.020726,-0.093811,0.037088,-0.1875,32.375,6.5,3,2024-11-14,11:06:58.876265
5.2,0.11,8.23,-0.034907,-0.135263,0.043633,-1.0625,31.25,8.0625,3,2024-11-14,11:06:58.892255
5.29,0.11,8.12,0.0,0.034907,-0.008727,-0.25,32.0,7.5625,3,2024-11-14,11:06:59.144182
5.59,0.07,8.28,-0.034907,-0.176715,0.064359,-0.25,32.375,8.875,3,2024-11-14,11:06:59.408666
5.29,0.07,8.13,0.0,0.017453,-0.002182,-0.1875,32.0,6.875,3,2024-11-14,11:06:59.608568
5.41,0.04,8.1,-0.011999,-0.008727,0.006545,-0.5625,32.375,8.5,3,2024-11-14,11:06:59.812764
5.41,-0.02,8.05,-0.004363,0.064359,-0.027271,0.1875,32.0,6.875,3,2024-11-14,11:06:59.858562
5.32,0.02,8.12,0.0,0.028362,-0.003272,-0.1875,32.0,7.25,3,2024-11-14,11:07:00.328546
5.41,0.02,7.98,-0.01309,0.01309,0.001091,-0.5625,32.375,7.6875,3,2024-11-14,11:07:00.563117
5.5,-0.05,8.04,-0.028362,-0.063268,0.017453,0.5,31.25,8.0625,3,2024-11-14,11:07:00.625085
5.63,-0.11,7.99,-0.001091,-0.01309,0.009817,0.875,32.375,7.25,3,2024-11-14,11:07:00.735017
5.65,-0.06,7.87,-0.007636,0.014181,-0.009817,0.5,32.6875,7.25,3,2024-11-14,11:07:00.736018
5.62,-0.09,7.84,-0.002182,-0.034907,-0.010908,1.1875,32.0,6.875,3,2024-11-14,11:07:00.921893
5.65,-0.07,7.79,-0.011999,-0.005454,0.020726,0.1875,32.375,7.25,3,2024-11-14,11:07:01.145793
6.0,-0.12,7.83,-0.051269,-0.153807,0.03927,0.875,31.6875,8.0625,3,2024-11-14,11:07:01.382063
6.22,-0.2,7.55,-0.016362,-0.059996,0.02618,0.875,31.6875,7.6875,3,2024-11-14,11:07:01.987655
6.12,-0.11,7.58,0.006545,-0.051269,-0.042542,1.5625,31.25,8.5,3,2024-11-14,11:07:03.517181
6.37,-0.16,7.58,-0.032725,0.018544,0.001091,0.75,31.6875,9.25,3,2024-11-14,11:07:03.736382
5.95,-0.37,7.62,0.016362,0.142899,-0.064359,1.0625,32.0,8.0625,3,2024-11-14,11:07:03.751355
5.46,-0.14,7.84,0.05236,0.284707,-0.020726,0.0625,32.375,7.6875,3,2024-11-14,11:07:03.752353
5.46,-0.17,7.89,-0.006545,0.09163,-0.017453,-0.1875,31.25,8.875,3,2024-11-14,11:07:03.767346
5.31,0.03,8.22,0.002182,0.008727,0.006545,-0.6875,32.0,8.1875,3,2024-11-14,11:07:03.768344
5.21,0.04,8.1,-0.038179,-0.069813,0.0,-0.25,32.0,8.1875,3,2024-11-14,11:07:03.768344
5.29,-0.15,7.94,-0.007636,-0.066541,0.038179,-1.0625,32.375,7.75,3,2024-11-14,11:07:03.768344
5.6,-0.14,7.96,-0.008727,-0.029452,0.020726,-0.25,31.6875,8.5625,3,2024-11-14,11:07:03.798325
5.34,-0.12,7.96,-0.001091,-0.111265,0.041452,0.375,32.0,8.1875,3,2024-11-14,11:07:03.814318
5.58,-0.02,7.95,-0.003272,-0.01309,0.007636,-0.25,31.6875,7.0,3,2024-11-14,11:07:03.955217
5.53,-0.11,7.85,-0.002182,0.016362,0.004363,0.0625,31.6875,8.5625,3,2024-11-14,11:07:04.124124
5.61,-0.16,7.87,-0.004363,-0.018544,0.006545,-0.1875,32.0,7.75,3,2024-11-14,11:07:04.374984
5.7,-0.12,8.04,-0.007636,-0.030543,0.003272,0.875,31.25,8.1875,3,2024-11-14,11:07:04.547366
5.69,-0.14,7.86,-0.007636,-0.028362,0.009817,0.875,31.25,8.5625,3,2024-11-14,11:07:04.734145
5.65,-0.1,7.95,-0.016362,-0.073086,0.015272,0.375,32.0,8.5625,3,2024-11-14,11:07:04.948793
5.61,-0.19,7.83,-0.006545,-0.017453,0.019635,1.0625,32.375,7.75,3,2024-11-14,11:07:05.153378
5.69,-0.15,7.77,0.005454,0.006545,-0.006545,0.375,31.6875,8.1875,3,2024-11-14,11:07:05.341570
5.67,-0.15,7.81,-0.002182,0.006545,0.004363,0.75,31.6875,7.6875,3,2024-11-14,11:07:05.702284
6.01,-0.15,7.77,-0.008727,0.018544,-0.029452,0.375,32.6875,7.75,3,2024-11-14,11:07:05.872182
5.4,-0.1,8.21,0.034907,0.041452,-0.070904,0.375,32.375,7.75,3,2024-11-14,11:07:05.979182
5.91,-0.08,7.82,0.017453,-0.01309,0.010908,0.0625,32.0,7.375,3,2024-11-14,11:07:05.980195
5.57,-0.07,7.9,0.044724,-0.1309,0.03927,0.0625,32.375,8.1875,3,2024-11-14,11:07:06.185348
5.54,0.06,8.1,0.057814,0.151625,0.031634,0.1875,32.0,6.1875,3,2024-11-14,11:07:06.391429
5.18,-0.13,8.39,-0.054542,0.023998,-0.002182,0.375,32.0,6.5625,3,2024-11-14,11:07:06.564692
5.25,0.13,8.08,0.010908,-0.211621,0.046906,-0.6875,32.0,7.25,3,2024-11-14,11:07:06.785360
5.59,0.27,7.83,-0.019635,-0.038179,-0.004363,0.375,32.375,7.375,3,2024-11-14,11:07:07.083326
5.46,0.03,8.03,-0.027271,-0.007636,-0.008727,-0.25,31.6875,7.375,3,2024-11-14,11:07:07.287511
5.7,-0.01,8.02,-0.034907,-0.062177,0.041452,0.75,32.0,6.875,3,2024-11-14,11:07:07.490412
5.72,-0.26,8.02,-0.03927,-0.019635,-0.033816,1.0625,32.6875,6.5625,3,2024-11-14,11:07:07.694678
5.62,0.1,7.99,0.006545,-0.062177,-0.001091,1.0625,32.0,7.0,3,2024-11-14,11:07:07.910612
5.68,-0.1,7.91,-0.049087,-0.061087,0.031634,-0.25,31.6875,8.1875,3,2024-11-14,11:07:08.208642
5.82,-0.19,7.82,-0.015272,-0.046906,0.006545,0.0625,31.75,6.5625,3,2024-11-14,11:07:08.409660
5.87,0.01,7.86,0.019635,-0.047997,-0.004363,0.75,32.75,8.5625,3,2024-11-14,11:07:08.643027
5.87,-0.1,7.69,-0.006545,0.007636,-0.017453,0.75,31.6875,7.75,3,2024-11-14,11:07:08.691248
5.92,-0.17,7.65,0.02618,0.03927,0.001091,0.375,32.375,7.375,3,2024-11-14,11:07:08.846914
5.89,-0.06,7.73,-0.025089,-0.017453,-0.011999,0.375,31.25,7.75,3,2024-11-14,11:07:09.049071
6.01,-0.12,7.7,-0.003272,-0.022907,0.01309,0.75,32.0,7.75,3,2024-11-14,11:07:09.362195
5.97,-0.01,7.73,-0.001091,-0.031634,0.002182,1.0625,31.6875,7.375,3,2024-11-14,11:07:09.548092
5.94,-0.02,7.72,-0.008727,-0.047997,0.022907,1.875,31.25,7.375,3,2024-11-14,11:07:09.762945
6.03,-0.03,7.87,0.014181,0.109083,-0.020726,1.0625,32.0,8.1875,3,2024-11-14,11:07:09.996830
5.53,0.0,7.81,0.016362,0.133081,-0.023998,0.375,31.6875,8.1875,3,2024-11-14,11:07:10.203265
5.7,0.02,7.85,-0.018544,-0.07854,0.02618,0.375,32.0,8.5625,3,2024-11-14,11:07:10.405035
5.82,-0.03,7.87,-0.004363,0.023998,-0.004363,1.0625,32.375,8.1875,3,2024-11-14,11:07:10.561047
5.71,-0.01,7.8,0.001091,0.001091,-0.007636,0.0625,32.375,7.375,3,2024-11-14,11:07:10.810442
5.8,-0.02,7.66,-0.021817,-0.111265,0.031634,1.0625,32.375,7.75,3,2024-11-14,11:07:10.974350
6.0,-0.13,7.64,-0.018544,-0.058905,0.011999,1.0625,31.6875,7.75,3,2024-11-14,11:07:10.974350
6.09,-0.08,7.62,-0.015272,-0.029452,0.005454,1.0625,32.375,9.0,3,2024-11-14,11:07:11.171620
6.12,-0.15,7.62,0.001091,0.003272,0.002182,1.0625,31.6875,8.1875,3,2024-11-14,11:07:11.451692
5.97,-0.05,7.68,0.014181,0.09163,-0.023998,1.5,33.0625,8.5625,3,2024-11-14,11:07:11.606626
5.98,-0.1,7.8,-0.005454,0.027271,-0.004363,1.5,31.25,7.75,3,2024-11-14,11:07:11.822432
5.76,-0.03,7.86,-0.008727,0.099266,-0.029452,0.375,31.6875,7.375,3,2024-11-14,11:07:12.012310
5.57,-0.01,7.94,0.011999,0.135263,-0.034907,0.75,32.6875,7.375,3,2024-11-14,11:07:12.182234
5.49,0.0,7.99,-0.004363,-0.020726,0.008727,0.0625,32.0,8.5625,3,2024-11-14,11:07:12.400657
5.47,0.02,7.92,-0.02618,-0.11781,0.029452,-0.6875,32.6875,7.75,3,2024-11-14,11:07:12.648986
5.76,-0.04,7.82,-0.015272,-0.101447,0.029452,0.75,32.6875,7.375,3,2024-11-14,11:07:12.837295
5.89,-0.05,7.77,-0.009817,-0.076358,0.015272,0.75,31.6875,7.75,3,2024-11-14,11:07:13.071534
5.91,-0.05,7.69,-0.009817,-0.049087,0.015272,0.75,32.0,8.1875,3,2024-11-14,11:07:13.352990
5.94,-0.08,7.65,-0.001091,-0.017453,0.004363,0.75,32.375,7.0,3,2024-11-14,11:07:13.542929
6.0,-0.12,7.63,-0.018544,-0.002182,-0.002182,0.75,31.6875,7.75,3,2024-11-14,11:07:13.727850
6.04,-0.12,7.77,0.0,0.064359,-0.021817,1.875,31.6875,8.1875,3,2024-11-14,11:07:13.949020
5.75,-0.1,7.65,0.006545,0.028362,0.005454,1.0625,32.0,7.375,3,2024-11-14,11:07:14.135911
5.89,-0.12,7.74,-0.011999,-0.127627,0.015272,0.75,33.5,6.5625,3,2024-11-14,11:07:14.430032
6.06,-0.14,7.65,-0.004363,-0.022907,-0.015272,2.1875,32.375,8.1875,3,2024-11-14,11:07:14.553959
6.09,-0.12,7.7,-0.005454,0.045815,-0.020726,0.75,32.375,7.375,3,2024-11-14,11:07:14.772874
6.0,-0.1,7.76,0.029452,0.061087,-0.028362,0.75,32.6875,8.1875,3,2024-11-14,11:07:14.990766
5.85,0.1,7.93,0.033816,0.129809,-0.031634,1.0625,32.0,7.375,3,2024-11-14,11:07:15.213347
5.49,0.13,7.95,0.01309,0.164715,-0.037088,0.75,32.0,8.1875,3,2024-11-14,11:07:15.417895
5.18,0.14,8.11,0.01309,0.165806,-0.050178,-1.0625,32.6875,7.75,3,2024-11-14,11:07:15.828213
5.07,0.18,8.19,-0.002182,-0.017453,0.004363,-0.25,31.25,7.75,3,2024-11-14,11:07:15.992591
5.34,0.21,8.33,-0.016362,-0.160352,0.047997,-1.0625,31.6875,8.1875,3,2024-11-14,11:07:16.037583
5.29,0.1,8.06,-0.032725,-0.133081,0.042542,-1.375,32.375,6.5625,3,2024-11-14,11:07:16.226467
5.57,0.05,8.01,-0.011999,-0.069813,0.015272,0.75,32.0,8.1875,3,2024-11-14,11:07:16.384007
5.68,0.0,7.94,-0.014181,-0.097084,0.016362,0.0625,32.0,8.1875,3,2024-11-14,11:07:16.696301
5.8,0.0,7.95,-0.020726,-0.07854,0.017453,-0.25,32.375,9.0,3,2024-11-14,11:07:16.711708
5.76,0.0,7.79,-0.007636,-0.014181,-0.002182,0.75,31.25,6.1875,3,2024-11-14,11:07:16.994891
5.83,-0.06,7.74,-0.009817,0.022907,-0.011999,0.375,32.6875,7.375,3,2024-11-14,11:07:17.227763
5.85,-0.03,7.72,-0.017453,-0.046906,0.005454,0.5,32.0,6.5625,3,2024-11-14,11:07:17.493121
6.04,-0.05,7.69,-0.022907,-0.088357,0.018544,1.5625,32.375,7.75,3,2024-11-14,11:07:17.525119
6.15,-0.06,7.53,-0.01309,-0.014181,-0.001091,1.5625,31.6875,7.75,3,2024-11-14,11:07:17.635072
6.04,-0.11,7.65,0.022907,0.137445,-0.019635,0.875,32.375,9.0,3,2024-11-14,11:07:17.947114
5.72,0.01,7.8,0.027271,0.14399,-0.044724,1.5625,32.0,9.0,3,2024-11-14,11:07:18.147046
5.69,0.01,7.86,-0.030543,0.008727,0.017453,0.875,32.0,7.0,3,2024-11-14,11:07:18.346932
5.54,0.09,8.0,0.010908,0.061087,-0.025089,0.875,32.6875,7.0,3,2024-11-14,11:07:18.548228
5.52,0.02,7.88,-0.015272,-0.029452,-0.002182,0.375,32.0,5.75,3,2024-11-14,11:07:18.737123
5.66,-0.01,8.05,-0.037088,-0.267254,0.062177,0.375,31.6875,7.375,3,2024-11-14,11:07:18.941002
5.73,0.03,7.65,-0.003272,0.032725,0.023998,1.0625,32.0,7.375,3,2024-11-14,11:07:19.146769
5.86,-0.13,7.89,-0.007636,-0.006545,0.022907,1.0625,32.0,7.375,3,2024-11-14,11:07:19.363159
6.02,-0.06,7.85,-0.003272,0.0,-0.006545,0.75,32.0,8.5625,3,2024-11-14,11:07:19.691270
5.76,-0.28,8.0,-0.069813,-0.087266,-0.098175,0.375,31.6875,8.5625,3,2024-11-14,11:07:19.882183
5.96,0.13,7.74,0.042542,-0.010908,-0.007636,1.5,32.375,9.0,3,2024-11-14,11:07:20.112049
5.91,0.04,7.65,0.025089,0.133081,-0.051269,0.0625,31.6875,8.1875,3,2024-11-14,11:07:20.158027
5.75,0.07,8.02,0.019635,0.019635,0.02618,0.75,32.375,7.75,3,2024-11-14,11:07:20.283964
5.74,-0.03,8.02,0.001091,-0.001091,-0.007636,0.0625,32.6875,7.0,3,2024-11-14,11:07:20.609355
5.58,0.13,8.02,-0.003272,0.071995,-0.010908,-0.25,32.6875,6.1875,3,2024-11-14,11:07:20.798249
5.28,0.17,8.11,0.011999,0.214894,-0.057814,-0.25,31.25,8.1875,3,2024-11-14,11:07:21.047830
5.12,0.18,8.12,0.004363,0.062177,-0.016362,-1.375,32.6875,6.5625,3,2024-11-14,11:07:21.233009
5.04,0.1,8.19,-0.02618,-0.010908,-0.025089,-1.75,32.0,7.75,3,2024-11-14,11:07:21.402897
5.08,0.26,8.27,0.014181,0.005454,0.015272,-1.0625,32.6875,9.6875,3,2024-11-14,11:07:21.622687
5.16,0.29,8.18,-0.025089,-0.030543,0.011999,-0.6875,32.375,7.0,3,2024-11-14,11:07:21.963773
5.17,0.06,8.17,-0.022907,-0.043633,0.008727,-0.6875,32.6875,7.0,3,2024-11-14,11:07:22.264863
5.11,0.17,8.02,-0.027271,-0.034907,0.018544,-1.0625,31.6875,7.0,3,2024-11-14,11:07:22.342817
5.47,0.06,8.03,-0.020726,-0.092721,0.032725,-0.25,32.0,7.375,3,2024-11-14,11:07:22.546715
5.35,0.06,8.08,0.004363,0.102538,-0.028362,0.0625,32.0,8.1875,3,2024-11-14,11:07:22.748469
5.51,-0.02,8.09,-0.009817,-0.123264,0.046906,-0.25,32.0,7.0,3,2024-11-14,11:07:23.403719
5.61,0.07,8.18,0.003272,0.023998,-0.027271,0.0625,31.6875,7.375,3,2024-11-14,11:07:25.077877
5.32,0.27,8.01,-0.028362,0.040361,-0.051269,-0.25,31.6875,7.375,3,2024-11-14,11:07:25.121945
5.64,0.17,7.96,-0.003272,-0.021817,0.040361,-0.6875,32.375,8.5625,3,2024-11-14,11:07:25.141173
5.4,0.33,8.37,-0.007636,-0.02618,-0.025089,0.0625,31.6875,8.1875,3,2024-11-14,11:07:25.156522
5.68,0.05,7.79,-0.005454,-0.092721,0.010908,0.0625,32.375,6.5625,3,2024-11-14,11:07:25.156522
5.19,0.34,7.84,0.029452,0.06545,-0.03927,-0.25,32.6875,7.75,3,2024-11-14,11:07:25.157523
5.55,0.13,8.01,-0.019635,-0.03927,0.020726,-1.0625,32.0,7.375,3,2024-11-14,11:07:25.157523
5.68,0.07,7.86,-0.009817,-0.041452,0.003272,0.0625,32.0,7.75,3,2024-11-14,11:07:25.172515
5.58,0.15,7.95,0.001091,0.056723,-0.019635,0.375,32.375,8.1875,3,2024-11-14,11:07:25.188503
5.48,0.25,8.05,-0.033816,-0.029452,-0.01309,-0.6875,31.6875,7.0,3,2024-11-14,11:07:25.220485
5.54,0.28,7.98,0.002182,-0.031634,0.02618,0.375,31.6875,7.75,3,2024-11-14,11:07:25.220485
5.58,0.14,7.91,-0.047997,-0.088357,0.017453,-0.6875,32.375,7.375,3,2024-11-14,11:07:25.283607
5.93,0.1,8.09,-0.010908,-0.101447,0.023998,0.375,31.6875,8.5625,3,2024-11-14,11:07:25.409555
6.11,0.03,8.05,0.035997,-0.074176,0.010908,0.75,32.6875,7.75,3,2024-11-14,11:07:25.720207
5.84,0.11,8.04,0.017453,0.142899,-0.030543,0.75,31.25,7.375,3,2024-11-14,11:07:25.917409
5.21,0.24,8.09,0.017453,0.214894,-0.051269,-0.25,32.0,8.1875,3,2024-11-14,11:07:25.950328
5.41,0.18,8.07,-0.027271,-0.226893,0.056723,-1.375,32.0,7.0,3,2024-11-14,11:07:26.180824
5.45,0.13,8.06,-0.004363,-0.040361,0.020726,-0.25,32.0,6.5625,3,2024-11-14,11:07:26.325714
5.58,0.14,8.15,-0.027271,-0.047997,0.002182,-1.0625,32.375,7.375,3,2024-11-14,11:07:26.604472
5.34,0.07,8.02,-0.101447,0.03927,0.030543,-0.25,32.375,7.75,3,2024-11-14,11:07:26.822434
5.83,0.25,8.0,0.017453,-0.017453,0.001091,0.375,30.875,6.5625,3,2024-11-14,11:07:26.947006
5.49,-0.21,7.98,0.05236,-0.017453,-0.028362,0.0625,30.875,7.75,3,2024-11-14,11:07:27.166080
5.6,0.09,7.75,0.023998,-0.017453,-0.068722,0.375,32.0,7.375,3,2024-11-14,11:07:27.352663
5.87,0.36,7.98,-0.010908,-0.064359,-0.027271,-0.6875,32.6875,7.375,3,2024-11-14,11:07:27.541551
5.77,0.24,7.84,-0.029452,0.03927,0.007636,-0.6875,32.375,7.375,3,2024-11-14,11:07:27.805664
5.76,0.15,8.05,0.018544,-0.007636,0.038179,-0.25,32.375,8.1875,3,2024-11-14,11:07:27.992414
5.85,0.15,8.0,-0.01309,-0.021817,0.007636,-0.25,32.375,8.5625,3,2024-11-14,11:07:28.194301
5.6,0.27,7.72,-0.007636,0.033816,-0.008727,0.0625,32.0,8.5625,3,2024-11-14,11:07:28.365509
5.62,0.24,7.89,-0.004363,-0.021817,0.009817,-1.375,32.375,7.0,3,2024-11-14,11:07:28.677362
5.74,0.22,7.95,-0.004363,-0.006545,-0.004363,-0.25,32.0,8.1875,3,2024-11-14,11:07:28.921762
5.72,0.22,7.88,-0.010908,-0.006545,0.0,-0.25,32.0,7.375,3,2024-11-14,11:07:28.968735
5.74,0.22,7.83,-0.002182,-0.003272,0.006545,-0.25,31.25,8.1875,3,2024-11-14,11:07:29.111672
5.85,0.19,7.82,-0.001091,-0.016362,0.007636,0.0625,32.375,7.75,3,2024-11-14,11:07:29.299722
5.92,0.08,7.87,0.017453,0.004363,0.008727,0.0625,31.6875,7.375,3,2024-11-14,11:07:29.548592
5.86,0.17,7.66,-0.009817,0.007636,-0.002182,0.375,32.0,8.1875,3,2024-11-14,11:07:29.752476
5.97,0.28,7.77,-0.009817,-0.028362,0.041452,-0.25,32.0,8.1875,3,2024-11-14,11:07:29.937536
5.73,0.59,7.32,-0.099266,-0.045815,0.100356,1.0625,32.0,7.75,3,2024-11-14,11:07:30.139902
6.05,-0.44,7.99,0.067632,-0.022907,0.021817,1.5,31.25,9.0625,3,2024-11-14,11:07:30.356692
6.06,-0.31,7.76,0.038179,-0.016362,-0.001091,2.1875,32.0,8.25,3,2024-11-14,11:07:30.772576
5.94,-0.21,7.78,0.035997,-0.076358,-0.017453,1.5,31.6875,7.875,3,2024-11-14,11:07:30.833410
6.08,-0.14,7.77,0.014181,-0.058905,-0.063268,1.5,31.6875,8.25,3,2024-11-14,11:07:31.126495
5.87,-0.08,7.56,0.010908,0.053451,0.010908,1.5,32.375,7.875,3,2024-11-14,11:07:31.361976
5.87,-0.17,7.76,0.031634,0.075267,0.006545,0.75,32.0,9.0625,3,2024-11-14,11:07:31.548872
5.62,-0.04,7.89,0.023998,0.18326,-0.047997,0.375,32.375,7.875,3,2024-11-14,11:07:31.564859
5.42,0.15,8.03,0.002182,0.14399,-0.046906,-0.25,31.6875,8.25,3,2024-11-14,11:07:31.766770
5.27,0.14,8.01,-0.015272,-0.057814,0.011999,-0.6875,32.375,7.875,3,2024-11-14,11:07:31.999949
5.3,0.14,8.01,-0.01309,-0.008727,0.008727,-0.6875,32.0,8.25,3,2024-11-14,11:07:32.188825
5.37,0.12,8.07,-0.008727,-0.055632,0.011999,0.0625,32.0,7.5,3,2024-11-14,11:07:32.436009
5.54,0.04,7.95,0.001091,-0.032725,0.006545,-0.6875,32.0,7.875,3,2024-11-14,11:07:32.576015
5.57,0.0,7.94,-0.016362,-0.025089,0.005454,0.375,32.375,7.5,3,2024-11-14,11:07:32.795572
5.59,0.01,7.84,-0.01309,-0.064359,0.017453,0.0625,32.0,8.6875,3,2024-11-14,11:07:33.015014
5.76,-0.05,7.9,-0.014181,-0.06545,0.019635,0.375,32.0,7.5,3,2024-11-14,11:07:33.727159
5.83,-0.06,7.85,-0.010908,-0.025089,0.002182,0.75,32.0,8.6875,3,2024-11-14,11:07:35.970943
5.81,-0.09,7.83,0.003272,-0.022907,0.002182,0.75,31.6875,7.875,3,2024-11-14,11:07:35.985920
5.85,-0.08,7.79,-0.010908,-0.054542,0.016362,0.75,31.6875,8.25,3,2024-11-14,11:07:36.001909
5.89,0.0,7.83,0.002182,0.010908,-0.001091,1.0625,32.0,8.25,3,2024-11-14,11:07:36.001909
5.75,0.0,7.81,0.0,0.077449,-0.018544,0.75,31.25,8.25,3,2024-11-14,11:07:36.016916
5.72,-0.03,7.9,-0.004363,0.077449,-0.019635,0.0625,31.6875,7.5,3,2024-11-14,11:07:36.033013
5.44,0.08,8.0,0.021817,0.186532,-0.046906,0.375,32.0,8.25,3,2024-11-14,11:07:36.033013
5.02,0.2,8.22,0.020726,0.214894,-0.05236,-0.6875,32.6875,8.25,3,2024-11-14,11:07:36.033013
5.1,0.15,8.23,-0.01309,-0.071995,0.017453,-0.6875,32.375,7.0625,3,2024-11-14,11:07:36.096975
5.11,0.14,8.26,-0.001091,-0.003272,0.002182,-1.375,31.6875,6.25,3,2024-11-14,11:07:36.158942
4.95,0.12,8.12,-0.007636,-0.033816,-0.001091,-1.0625,32.375,7.5,3,2024-11-14,11:07:36.190925
5.32,0.04,8.14,-0.032725,-0.207258,0.056723,-0.25,32.0,7.875,3,2024-11-14,11:07:36.252887
5.53,0.23,8.08,-0.010908,-0.097084,0.066541,-0.25,31.6875,6.6875,3,2024-11-14,11:07:36.269878
5.53,0.07,7.95,-0.021817,-0.043633,0.009817,-1.0625,31.6875,7.875,3,2024-11-14,11:07:36.300859
5.53,0.11,7.98,-0.02618,-0.062177,0.01309,-0.25,32.0,7.0625,3,2024-11-14,11:07:36.300859
5.63,0.05,7.89,-0.017453,-0.045815,0.006545,-0.25,31.6875,7.0625,3,2024-11-14,11:07:36.379325
5.7,0.0,7.84,-0.014181,-0.022907,0.002182,0.375,31.6875,8.25,3,2024-11-14,11:07:36.569323
5.72,0.0,7.78,-0.010908,-0.055632,0.008727,0.375,32.375,8.25,3,2024-11-14,11:07:36.802428
5.89,-0.06,7.81,0.005454,0.081812,-0.022907,0.75,31.6875,7.0625,3,2024-11-14,11:07:36.972376
5.67,0.01,7.94,0.018544,0.080721,-0.018544,0.0625,32.0,9.0625,3,2024-11-14,11:07:38.919083
5.45,0.11,7.82,0.043633,0.19635,-0.057814,0.375,32.375,7.875,3,2024-11-14,11:07:38.998890
5.17,0.15,8.07,0.015272,0.1309,-0.021817,-0.6875,32.0,7.5,3,2024-11-14,11:07:38.999772
5.07,0.13,8.36,-0.006545,0.188714,-0.053451,-1.375,32.375,8.6875,3,2024-11-14,11:07:39.013763
4.87,0.2,8.27,-0.005454,-0.027271,0.003272,-1.0625,32.375,8.25,3,2024-11-14,11:07:39.030753
4.87,0.27,8.31,-0.009817,-0.092721,0.021817,-1.0625,32.0,6.6875,3,2024-11-14,11:07:39.031760
5.18,0.19,8.24,-0.019635,-0.112356,0.032725,-2.0625,31.25,7.875,3,2024-11-14,11:07:39.045371
5.33,0.06,8.18,-0.017453,-0.115628,0.032725,0.0625,32.375,8.25,3,2024-11-14,11:07:39.045371
5.32,0.09,8.07,-0.006545,-0.02618,0.003272,-0.6875,32.375,7.5,3,2024-11-14,11:07:39.045371
5.54,0.11,8.05,-0.023998,-0.103629,0.032725,-0.6875,31.6875,7.875,3,2024-11-14,11:07:39.077361
5.61,0.0,7.91,-0.019635,-0.112356,0.030543,0.375,31.6875,8.25,3,2024-11-14,11:07:39.247123
5.85,-0.05,7.74,-0.033816,-0.136354,0.032725,0.75,32.0625,8.6875,3,2024-11-14,11:07:39.356055
6.01,-0.12,7.76,0.002182,0.018544,-0.010908,0.75,31.375,7.5,3,2024-11-14,11:07:39.557093
5.86,-0.06,7.76,0.015272,0.09163,-0.021817,0.375,32.0,8.6875,3,2024-11-14,11:07:39.760870
5.7,0.0,7.78,0.016362,0.105811,-0.027271,0.375,32.0,7.875,3,2024-11-14,11:07:42.510545
5.54,0.06,7.93,0.01309,0.149444,-0.03927,0.0625,32.0,7.0625,3,2024-11-14,11:07:42.540560
5.29,0.13,8.21,0.014181,0.141808,-0.035997,0.375,32.5,8.25,3,2024-11-14,11:07:42.541552
5.07,0.15,8.17,0.008727,0.076358,-0.020726,-0.6875,32.0625,7.5,3,2024-11-14,11:07:42.541552
5.17,0.12,8.1,-0.010908,-0.041452,0.01309,-0.6875,32.375,7.875,3,2024-11-14,11:07:42.541552
5.35,0.03,8.12,-0.007636,-0.081812,0.019635,0.0625,32.0625,8.25,3,2024-11-14,11:07:42.556541
5.29,0.07,7.99,-0.006545,-0.034907,0.008727,-1.0625,32.375,8.25,3,2024-11-14,11:07:42.728459
5.51,-0.01,8.08,0.005454,-0.022907,-0.001091,-0.25,31.6875,7.5,3,2024-11-14,11:07:42.728459
5.45,0.03,7.86,-0.019635,-0.047997,-0.016362,0.0625,31.75,7.5,3,2024-11-14,11:07:42.744432
5.51,0.0,7.85,0.01309,0.045815,-0.027271,-0.25,33.1875,7.875,3,2024-11-14,11:07:42.789408
5.45,0.04,8.16,0.007636,0.081812,-0.038179,0.375,32.375,8.6875,3,2024-11-14,11:07:42.805308
5.63,0.14,8.15,0.025089,-0.046906,0.064359,0.0625,31.0,6.6875,3,2024-11-14,11:07:42.805308
5.64,0.14,8.13,0.035997,-0.01309,0.059996,0.0625,32.5,7.5,3,2024-11-14,11:07:42.820615
5.33,0.03,8.13,0.059996,0.050178,0.057814,0.75,31.6875,7.875,3,2024-11-14,11:07:42.820615
5.38,0.27,8.15,0.064359,0.063268,0.019635,0.0625,31.6875,7.0625,3,2024-11-14,11:07:42.929551
5.38,0.17,8.27,-0.046906,0.047997,-0.030543,0.375,32.6875,5.5,3,2024-11-14,11:07:43.195031
5.04,0.14,8.03,-0.014181,0.178896,-0.095993,0.75,33.5,5.5,3,2024-11-14,11:07:43.334144
4.9,0.39,8.45,-0.021817,-0.034907,-0.056723,-1.0625,31.6875,7.875,3,2024-11-14,11:07:43.411609
4.92,0.37,8.36,-0.002182,0.097084,-0.058905,-0.6875,32.5,7.0625,3,2024-11-14,11:07:43.551529
4.7,0.39,8.01,-0.006545,0.093811,-0.004363,-1.375,32.5,7.5,3,2024-11-14,11:07:43.721459
4.46,0.37,8.47,0.014181,0.089448,-0.005454,-1.375,33.5625,7.1875,3,2024-11-14,11:07:43.995554
4.61,0.45,8.33,0.213803,-0.020726,0.15708,-1.375,32.5,6.25,3,2024-11-14,11:07:44.169470
4.75,0.62,8.52,0.029452,-0.069813,0.076358,-0.6875,32.75,6.75,3,2024-11-14,11:07:44.372862
4.63,0.04,8.72,-0.077449,-0.055632,0.02618,0.75,32.5,5.875,3,2024-11-14,11:07:44.561745
4.83,0.13,8.46,-0.090539,-0.150535,-0.101447,0.375,32.75,6.75,3,2024-11-14,11:07:44.763650
5.08,0.38,8.12,-0.056723,-0.053451,-0.049087,0.0625,32.0,7.5625,3,2024-11-14,11:07:44.948430
5.18,0.29,7.92,0.005454,0.111265,-0.01309,0.375,32.5,7.0625,3,2024-11-14,11:07:45.181311
4.58,0.35,8.8,0.029452,0.198531,-0.003272,-0.6875,32.0625,7.0625,3,2024-11-14,11:07:45.495470
4.2,0.39,8.39,-0.019635,-0.079631,0.021817,-0.6875,32.75,6.25,3,2024-11-14,11:07:45.730334
5.02,0.23,8.29,-0.021817,-0.063268,-0.003272,-0.25,32.5,6.6875,3,2024-11-14,11:07:46.173262
