ax,ay,az,gx,gy,gz,mx,my,mz,target,DateRecord,TimeRecord
1.14,-2.36,-9.03,0.136354,0.041452,0.09163,28.6875,16.0,4.0,2,2024-11-14,11:05:18.064768
1.15,-2.35,-8.95,-0.002182,0.038179,0.020726,28.6875,15.6875,2.75,2,2024-11-14,11:05:18.123735
1.31,-2.21,-9.33,-0.014181,-0.040361,0.005454,28.6875,14.875,2.0,2,2024-11-14,11:05:18.124735
1.36,-2.22,-9.15,0.016362,-0.001091,-0.001091,29.0625,15.6875,2.375,2,2024-11-14,11:05:18.308678
1.27,-2.37,-9.17,-0.053451,-0.057814,-0.007636,28.6875,14.875,4.0,2,2024-11-14,11:05:18.526637
1.18,-2.35,-9.18,0.007636,-0.005454,-0.002182,28.6875,15.25,2.375,2,2024-11-14,11:05:18.730653
1.14,-2.46,-9.18,0.008727,0.016362,-0.016362,28.0,15.6875,2.75,2,2024-11-14,11:05:18.960726
1.13,-2.57,-9.22,0.030543,0.014181,-0.004363,28.0,15.25,1.5625,2,2024-11-14,11:05:19.244321
1.13,-2.57,-9.21,0.009817,0.016362,-0.007636,28.6875,14.875,1.25,2,2024-11-14,11:05:19.509044
1.13,-2.62,-9.19,0.01309,0.003272,-0.004363,29.0625,14.875,2.875,2,2024-11-14,11:05:19.712811
1.1,-2.69,-9.15,0.008727,0.007636,-0.007636,28.6875,14.875,1.6875,2,2024-11-14,11:05:19.898715
1.14,-2.66,-9.18,-0.003272,0.010908,-0.005454,28.6875,14.5,2.875,2,2024-11-14,11:05:20.066664
1.11,-2.71,-9.19,-0.02618,-0.008727,-0.003272,28.375,14.875,2.875,2,2024-11-14,11:05:20.287373
1.06,-2.71,-9.22,-0.022907,-0.021817,0.004363,28.0,15.25,2.0625,2,2024-11-14,11:05:20.487316
1.05,-2.81,-9.22,0.018544,-0.010908,-0.001091,29.5,15.25,2.875,2,2024-11-14,11:05:20.692542
1.03,-2.78,-9.2,-0.004363,0.009817,-0.005454,29.0625,14.5,2.0625,2,2024-11-14,11:05:20.892425
0.99,-2.8,-9.2,0.011999,0.002182,-0.001091,28.6875,14.875,1.25,2,2024-11-14,11:05:21.159857
1.0,-2.79,-9.23,0.004363,0.005454,-0.004363,29.0625,15.25,2.0625,2,2024-11-14,11:05:21.439141
1.0,-2.85,-9.21,0.007636,0.005454,-0.005454,29.5,15.25,3.25,2,2024-11-14,11:05:21.643628
0.98,-2.93,-9.19,0.010908,0.004363,-0.007636,28.6875,14.5,2.875,2,2024-11-14,11:05:21.705938
0.98,-2.95,-9.18,0.018544,0.009817,-0.006545,28.375,14.875,2.0,2,2024-11-14,11:05:21.859862
0.98,-3.02,-9.21,0.009817,0.004363,-0.003272,29.5,14.875,1.5625,2,2024-11-14,11:05:22.173739
0.99,-3.03,-9.19,0.021817,0.007636,-0.005454,29.5,14.5,2.375,2,2024-11-14,11:05:22.373770
0.98,-3.06,-9.15,0.015272,0.001091,-0.004363,28.6875,14.5,2.375,2,2024-11-14,11:05:22.531647
0.97,-3.1,-9.18,0.027271,0.006545,-0.005454,28.6875,14.5,1.1875,2,2024-11-14,11:05:22.733976
0.96,-3.09,-9.19,0.004363,0.010908,-0.007636,29.0625,14.5,1.5625,2,2024-11-14,11:05:22.939954
0.97,-3.07,-9.16,0.008727,0.010908,-0.006545,28.375,15.25,1.5625,2,2024-11-14,11:05:23.157311
0.97,-3.07,-9.18,0.014181,0.008727,-0.005454,28.6875,14.875,1.5625,2,2024-11-14,11:05:23.157311
0.96,-3.11,-9.19,-0.010908,0.003272,-0.002182,29.0625,14.1875,2.0,2,2024-11-14,11:05:23.379623
0.96,-3.09,-9.16,-0.002182,0.005454,-0.002182,28.375,15.6875,2.0,2,2024-11-14,11:05:23.597501
0.98,-3.08,-9.15,-0.005454,0.0,-0.003272,28.375,14.875,1.1875,2,2024-11-14,11:05:23.751632
0.96,-3.09,-9.17,0.0,-0.002182,-0.001091,29.5,14.875,2.0,2,2024-11-14,11:05:23.989166
0.97,-3.08,-9.17,-0.001091,0.002182,-0.003272,28.0,14.5,0.0,2,2024-11-14,11:05:24.208039
0.97,-3.08,-9.18,0.010908,0.0,0.001091,28.6875,15.25,1.1875,2,2024-11-14,11:05:24.598514
0.93,-3.1,-9.19,-0.008727,0.004363,0.001091,28.6875,15.25,0.75,2,2024-11-14,11:05:24.613503
0.93,-3.09,-9.17,0.017453,-0.002182,-0.002182,29.5,15.25,1.1875,2,2024-11-14,11:05:25.056813
0.94,-3.07,-9.21,0.003272,0.002182,0.001091,28.6875,15.25,1.5625,2,2024-11-14,11:05:25.385390
0.94,-3.1,-9.17,-0.008727,0.004363,-0.002182,28.6875,14.875,1.1875,2,2024-11-14,11:05:25.385390
0.94,-3.08,-9.17,-0.002182,0.007636,-0.002182,29.0625,14.1875,1.1875,2,2024-11-14,11:05:25.633247
0.94,-3.05,-9.18,-0.003272,0.001091,-0.001091,29.0625,14.875,0.75,2,2024-11-14,11:05:25.681224
0.95,-3.06,-9.19,0.004363,0.001091,-0.001091,28.6875,14.5,2.0,2,2024-11-14,11:05:25.808426
0.97,-3.05,-9.19,0.006545,0.006545,-0.001091,29.0625,15.25,2.375,2,2024-11-14,11:05:26.045115
0.94,-3.04,-9.2,-0.001091,0.002182,-0.002182,28.6875,15.25,0.75,2,2024-11-14,11:05:26.371281
0.97,-2.98,-9.19,-0.003272,0.006545,-0.003272,29.0625,15.25,1.1875,2,2024-11-14,11:05:26.557173
0.98,-2.97,-9.18,0.001091,0.002182,-0.002182,28.6875,15.25,1.5625,2,2024-11-14,11:05:26.863986
0.98,-2.98,-9.21,0.002182,-0.002182,-0.003272,28.6875,14.5,1.1875,2,2024-11-14,11:05:27.068874
0.97,-2.96,-9.17,-0.005454,0.001091,0.002182,29.0625,14.1875,1.1875,2,2024-11-14,11:05:27.115847
0.97,-2.95,-9.17,0.002182,-0.001091,0.001091,28.375,14.875,1.5625,2,2024-11-14,11:05:27.336029
0.96,-2.96,-9.19,-0.001091,0.003272,0.001091,28.6875,14.875,1.1875,2,2024-11-14,11:05:27.556692
0.97,-2.98,-9.24,0.001091,0.001091,-0.001091,29.5,15.25,1.1875,2,2024-11-14,11:05:27.817625
0.95,-3.02,-9.16,0.003272,-0.002182,0.001091,29.0625,14.5,1.1875,2,2024-11-14,11:05:27.987903
0.96,-3.02,-9.17,-0.005454,-0.001091,0.001091,29.5,15.25,1.1875,2,2024-11-14,11:05:28.051882
0.97,-3.0,-9.18,0.0,0.006545,0.001091,28.6875,14.5,1.1875,2,2024-11-14,11:05:28.191992
0.97,-3.0,-9.19,0.001091,0.0,0.001091,28.6875,14.5,1.1875,2,2024-11-14,11:05:28.457381
0.97,-3.0,-9.19,-0.006545,0.0,0.0,29.0625,14.875,2.0,2,2024-11-14,11:05:28.695913
0.98,-2.99,-9.18,-0.002182,-0.001091,0.0,28.6875,14.5,2.375,2,2024-11-14,11:05:28.917105
0.98,-3.0,-9.17,0.010908,0.002182,-0.003272,28.0,14.875,2.375,2,2024-11-14,11:05:29.071525
0.98,-3.02,-9.19,0.004363,-0.001091,0.001091,29.0625,14.875,0.75,2,2024-11-14,11:05:29.304402
0.99,-3.02,-9.2,0.001091,-0.002182,0.0,29.0625,15.25,2.375,2,2024-11-14,11:05:29.505384
0.99,-3.04,-9.18,0.004363,-0.006545,-0.001091,28.6875,14.875,0.75,2,2024-11-14,11:05:29.817431
1.0,-3.05,-9.14,0.001091,0.004363,-0.003272,28.375,14.875,2.0,2,2024-11-14,11:05:29.989552
0.98,-3.05,-9.17,0.0,0.002182,-0.001091,28.6875,15.25,1.5625,2,2024-11-14,11:05:30.240442
0.98,-3.08,-9.16,0.004363,0.001091,-0.001091,28.6875,14.5,2.0,2,2024-11-14,11:05:30.300962
0.98,-3.11,-9.17,-0.003272,0.001091,-0.001091,28.6875,14.875,1.5625,2,2024-11-14,11:05:30.458844
0.98,-3.11,-9.18,-0.003272,0.002182,0.001091,28.6875,14.1875,2.375,2,2024-11-14,11:05:30.663004
0.98,-3.1,-9.17,-0.003272,-0.002182,0.0,29.0625,14.1875,1.5625,2,2024-11-14,11:05:30.804811
1.0,-3.12,-9.15,0.007636,0.0,-0.001091,29.5,14.875,1.5625,2,2024-11-14,11:05:31.047965
0.96,-3.14,-9.17,-0.004363,0.002182,0.0,29.875,14.875,1.5625,2,2024-11-14,11:05:31.248069
0.97,-3.12,-9.17,-0.007636,0.0,0.0,29.0625,14.1875,1.5625,2,2024-11-14,11:05:31.435982
0.99,-3.16,-9.19,0.001091,-0.001091,0.0,29.0625,14.875,0.75,2,2024-11-14,11:05:31.652087
0.96,-3.15,-9.17,-0.002182,0.0,0.001091,29.0625,14.875,2.0,2,2024-11-14,11:05:31.857961
0.98,-3.17,-9.18,-0.002182,-0.001091,0.002182,29.0625,14.875,1.5625,2,2024-11-14,11:05:32.050488
0.96,-3.11,-9.16,-0.005454,0.001091,0.0,28.6875,14.1875,1.1875,2,2024-11-14,11:05:32.283191
0.98,-3.11,-9.18,0.0,0.001091,0.001091,29.5,14.875,2.0,2,2024-11-14,11:05:32.501068
0.97,-3.08,-9.14,-0.002182,0.002182,-0.001091,29.0625,14.5,1.5625,2,2024-11-14,11:05:32.940638
0.97,-3.14,-9.16,0.008727,-0.002182,0.0,28.0,14.875,2.375,2,2024-11-14,11:05:33.002601
0.97,-3.12,-9.16,0.005454,0.0,0.002182,28.375,14.5,0.75,2,2024-11-14,11:05:33.201408
1.0,-3.14,-9.16,0.004363,0.001091,-0.001091,28.6875,14.5,2.0,2,2024-11-14,11:05:33.435272
0.98,-3.16,-9.19,0.006545,-0.003272,0.001091,28.375,14.875,1.5625,2,2024-11-14,11:05:33.604957
0.96,-3.11,-9.18,0.008727,0.0,0.0,28.6875,14.5,0.75,2,2024-11-14,11:05:33.779042
0.98,-3.13,-9.18,-0.002182,-0.002182,0.001091,29.5,14.5,1.1875,2,2024-11-14,11:05:33.997923
0.98,-3.18,-9.17,0.008727,-0.008727,0.0,29.0625,15.25,2.375,2,2024-11-14,11:05:34.059137
0.96,-3.21,-9.13,-0.007636,-0.009817,0.002182,29.0625,14.5,1.5625,2,2024-11-14,11:05:34.229135
0.96,-3.26,-9.15,-0.001091,-0.007636,0.006545,29.0625,14.5,0.75,2,2024-11-14,11:05:34.447107
0.95,-3.24,-9.15,0.005454,-0.008727,0.005454,29.0625,14.5,1.1875,2,2024-11-14,11:05:34.651114
0.94,-3.21,-9.2,-0.001091,-0.004363,0.002182,28.6875,14.875,0.75,2,2024-11-14,11:05:34.839528
0.93,-3.25,-9.2,0.002182,-0.003272,0.001091,29.0625,15.25,0.75,2,2024-11-14,11:05:35.036923
0.92,-3.27,-9.19,-0.006545,-0.002182,0.002182,28.6875,14.1875,1.1875,2,2024-11-14,11:05:35.326893
0.93,-3.3,-9.16,0.002182,-0.01309,0.004363,29.0625,14.5,2.0,2,2024-11-14,11:05:35.625733
0.9,-3.34,-9.17,-0.001091,-0.002182,-0.002182,29.0625,14.875,0.375,2,2024-11-14,11:05:35.876723
0.93,-3.38,-9.19,-0.015272,0.007636,0.0,28.375,14.1875,0.75,2,2024-11-14,11:05:36.049201
0.92,-3.29,-9.2,-0.002182,0.007636,0.001091,28.6875,14.5,0.75,2,2024-11-14,11:05:36.065208
0.94,-3.28,-9.15,0.005454,0.003272,0.0,29.0625,14.5,1.1875,2,2024-11-14,11:05:36.284664
0.94,-3.28,-9.17,-0.001091,0.008727,-0.003272,28.6875,14.5,1.1875,2,2024-11-14,11:05:36.453567
0.95,-3.28,-9.18,-0.001091,0.003272,0.002182,28.375,14.875,1.5625,2,2024-11-14,11:05:36.671442
0.95,-3.29,-9.18,0.015272,-0.001091,0.0,28.375,14.5,0.75,2,2024-11-14,11:05:36.859972
0.97,-3.29,-9.2,-0.008727,0.002182,-0.001091,28.375,14.1875,2.0,2,2024-11-14,11:05:37.092839
0.94,-3.29,-9.16,-0.019635,-0.006545,0.003272,28.6875,14.875,2.75,2,2024-11-14,11:05:37.295066
0.95,-3.25,-9.18,-0.011999,-0.004363,0.0,28.6875,14.5,1.5625,2,2024-11-14,11:05:37.464984
0.96,-3.2,-9.18,-0.009817,-0.007636,0.002182,29.0625,14.875,0.75,2,2024-11-14,11:05:37.700869
0.95,-3.26,-9.19,-0.009817,-0.003272,0.001091,29.0625,15.6875,1.1875,2,2024-11-14,11:05:37.935159
0.93,-3.24,-9.2,-0.006545,0.001091,0.0,28.6875,14.875,0.75,2,2024-11-14,11:05:38.216786
0.92,-3.31,-9.16,-0.004363,-0.003272,0.001091,28.6875,15.6875,1.5625,2,2024-11-14,11:05:38.422061
0.92,-3.29,-9.18,0.002182,0.0,0.001091,28.6875,14.875,1.5625,2,2024-11-14,11:05:38.612428
0.96,-3.34,-9.17,-0.001091,-0.001091,0.001091,28.6875,15.25,1.5625,2,2024-11-14,11:05:38.862754
0.91,-3.35,-9.17,0.002182,0.0,-0.001091,28.6875,15.25,1.5625,2,2024-11-14,11:05:39.147127
0.93,-3.4,-9.17,0.003272,0.006545,0.0,28.6875,15.25,1.5625,2,2024-11-14,11:05:39.415914
0.93,-3.42,-9.16,0.004363,0.001091,0.001091,28.6875,15.25,0.375,2,2024-11-14,11:05:39.493857
0.9,-3.41,-9.16,0.007636,0.004363,0.0,29.0625,14.5,1.1875,2,2024-11-14,11:05:39.601117
0.91,-3.4,-9.16,0.002182,0.0,-0.002182,28.6875,14.5,2.375,2,2024-11-14,11:05:39.961253
0.93,-3.4,-9.18,0.002182,-0.003272,0.0,28.375,15.25,0.75,2,2024-11-14,11:05:40.025202
0.92,-3.38,-9.18,-0.007636,-0.002182,0.0,29.5,15.25,1.5625,2,2024-11-14,11:05:40.388185
0.93,-3.37,-9.14,-0.015272,-0.001091,-0.001091,28.375,15.25,2.375,2,2024-11-14,11:05:40.570681
0.93,-3.33,-9.14,-0.016362,-0.008727,0.003272,29.5,14.5,1.5625,2,2024-11-14,11:05:40.634645
0.91,-3.34,-9.16,-0.011999,-0.006545,0.002182,29.5,14.5,1.5625,2,2024-11-14,11:05:40.789572
0.9,-3.36,-9.15,-0.007636,-0.004363,0.001091,28.6875,15.6875,1.5625,2,2024-11-14,11:05:40.977961
0.9,-3.35,-9.17,-0.002182,-0.003272,0.0,28.6875,15.25,1.5625,2,2024-11-14,11:05:41.198840
0.9,-3.35,-9.18,-0.005454,-0.001091,-0.001091,28.375,15.6875,2.0,2,2024-11-14,11:05:41.385271
0.89,-3.44,-9.18,-0.001091,-0.005454,-0.002182,28.6875,15.6875,0.75,2,2024-11-14,11:05:41.591054
0.9,-3.37,-9.14,-0.006545,0.003272,-0.001091,27.6875,15.25,1.5625,2,2024-11-14,11:05:41.821928
0.89,-3.36,-9.19,-0.010908,0.003272,-0.001091,28.375,14.875,2.0,2,2024-11-14,11:05:42.036990
0.9,-3.38,-9.19,0.0,0.002182,0.004363,28.6875,14.5,0.75,2,2024-11-14,11:05:42.239803
0.89,-3.38,-9.18,0.003272,0.001091,0.001091,28.6875,15.25,0.75,2,2024-11-14,11:05:42.520874
0.92,-3.37,-9.18,-0.001091,0.001091,0.0,28.0,14.875,0.375,2,2024-11-14,11:05:42.693775
0.92,-3.36,-9.17,0.001091,0.0,0.002182,28.6875,15.25,0.375,2,2024-11-14,11:05:42.940471
0.88,-3.38,-9.19,-0.008727,-0.001091,0.001091,28.375,14.875,0.75,2,2024-11-14,11:05:42.987460
0.9,-3.32,-9.17,-0.009817,0.002182,0.0,28.6875,14.5,1.5625,2,2024-11-14,11:05:43.146355
0.89,-3.28,-9.19,-0.015272,0.001091,0.001091,28.6875,14.5,1.5625,2,2024-11-14,11:05:43.430212
0.88,-3.32,-9.17,-0.003272,0.0,0.0,28.6875,15.6875,0.375,2,2024-11-14,11:05:43.646475
0.9,-3.32,-9.18,-0.003272,-0.002182,-0.001091,29.5,14.875,1.1875,2,2024-11-14,11:05:43.852657
0.89,-3.32,-9.19,0.0,0.002182,-0.001091,28.375,14.875,2.0,2,2024-11-14,11:05:44.054887
0.88,-3.36,-9.19,-0.001091,0.001091,0.0,29.5,14.1875,0.375,2,2024-11-14,11:05:44.224791
0.91,-3.37,-9.16,0.004363,0.002182,0.001091,29.0625,14.875,2.375,2,2024-11-14,11:05:44.487837
0.87,-3.38,-9.2,-0.004363,0.002182,0.0,28.6875,14.875,2.0,2,2024-11-14,11:05:44.676755
0.91,-3.41,-9.16,0.0,0.001091,0.001091,29.0625,15.6875,1.1875,2,2024-11-14,11:05:44.723711
0.9,-3.44,-9.16,-0.003272,0.0,0.0,28.0,14.5,1.1875,2,2024-11-14,11:05:44.850653
0.9,-3.43,-9.16,0.0,-0.003272,0.001091,27.6875,14.875,1.5625,2,2024-11-14,11:05:45.131570
0.9,-3.44,-9.17,0.01309,-0.003272,0.0,28.6875,14.875,1.5625,2,2024-11-14,11:05:45.302457
0.89,-3.39,-9.17,-0.001091,0.003272,-0.002182,28.6875,15.25,2.0,2,2024-11-14,11:05:45.562873
0.89,-3.39,-9.16,-0.001091,-0.001091,0.0,29.5,15.25,1.1875,2,2024-11-14,11:05:45.780770
0.88,-3.31,-9.19,0.003272,-0.004363,0.001091,29.0625,14.1875,0.0,2,2024-11-14,11:05:46.000625
0.9,-3.33,-9.18,-0.002182,0.0,0.002182,29.0625,14.5,1.5625,2,2024-11-14,11:05:46.171023
0.88,-3.34,-9.19,-0.005454,0.001091,-0.002182,29.0625,15.25,0.75,2,2024-11-14,11:05:46.423128
0.88,-3.38,-9.15,0.002182,-0.001091,0.002182,29.5,14.1875,1.1875,2,2024-11-14,11:05:46.754446
0.88,-3.38,-9.17,-0.014181,0.001091,0.0,28.0,14.1875,1.1875,2,2024-11-14,11:05:46.987316
0.88,-3.35,-9.16,-0.002182,0.001091,-0.001091,28.6875,14.5,0.375,2,2024-11-14,11:05:47.004307
0.91,-3.35,-9.19,0.0,-0.002182,0.002182,28.375,15.25,1.1875,2,2024-11-14,11:05:47.220695
0.88,-3.4,-9.17,0.004363,0.001091,0.0,28.375,14.875,1.1875,2,2024-11-14,11:05:47.408684
0.89,-3.42,-9.19,-0.003272,0.003272,0.001091,29.0625,14.5,0.75,2,2024-11-14,11:05:47.627046
0.91,-3.39,-9.18,0.002182,-0.002182,0.001091,28.6875,15.6875,1.1875,2,2024-11-14,11:05:47.814938
0.88,-3.43,-9.18,-0.004363,0.001091,0.0,28.6875,14.875,0.75,2,2024-11-14,11:05:48.127441
0.87,-3.43,-9.19,-0.001091,0.001091,-0.001091,28.6875,15.25,1.1875,2,2024-11-14,11:05:48.358308
0.87,-3.47,-9.17,0.002182,0.002182,0.0,28.6875,15.6875,1.5625,2,2024-11-14,11:05:48.635107
0.89,-3.43,-9.19,0.003272,-0.001091,0.001091,29.5,14.875,2.375,2,2024-11-14,11:05:48.666090
0.88,-3.41,-9.16,-0.010908,-0.002182,0.0,29.5,14.5,0.375,2,2024-11-14,11:05:48.852064
0.86,-3.28,-9.18,-0.014181,0.002182,0.003272,29.0625,14.875,1.6875,2,2024-11-14,11:05:49.070084
0.88,-3.25,-9.2,0.004363,0.001091,0.0,28.0,14.5,2.0625,2,2024-11-14,11:05:49.336103
0.89,-3.27,-9.17,0.002182,0.001091,0.001091,29.0625,15.25,1.6875,2,2024-11-14,11:05:49.570054
0.9,-3.24,-9.2,0.001091,0.004363,0.001091,28.6875,15.25,0.875,2,2024-11-14,11:05:49.762380
0.89,-3.24,-9.18,0.006545,0.002182,0.001091,29.5,14.5,1.6875,2,2024-11-14,11:05:49.825360
0.87,-3.31,-9.19,0.005454,0.003272,0.001091,29.0625,14.875,0.875,2,2024-11-14,11:05:49.999261
0.87,-3.28,-9.17,0.002182,0.0,0.002182,29.5,15.25,2.0625,2,2024-11-14,11:05:50.200351
0.87,-3.3,-9.17,0.001091,-0.001091,0.0,29.0625,14.875,1.25,2,2024-11-14,11:05:50.385258
0.88,-3.28,-9.2,0.0,0.0,0.001091,29.0625,14.1875,0.5,2,2024-11-14,11:05:50.575137
0.9,-3.28,-9.19,0.002182,0.0,0.002182,29.0625,14.5,1.6875,2,2024-11-14,11:05:50.824288
0.88,-3.3,-9.22,-0.001091,-0.001091,-0.001091,28.6875,14.875,1.25,2,2024-11-14,11:05:50.997187
0.88,-3.33,-9.19,0.001091,0.0,-0.001091,29.5,14.5,0.5625,2,2024-11-14,11:05:51.245158
0.89,-3.33,-9.21,-0.004363,0.001091,-0.001091,29.875,14.875,1.6875,2,2024-11-14,11:05:51.397073
0.88,-3.34,-9.18,-0.003272,0.0,-0.001091,29.875,14.5,1.6875,2,2024-11-14,11:05:51.599968
0.88,-3.32,-9.19,0.0,0.001091,0.002182,29.0625,14.875,1.25,2,2024-11-14,11:05:52.068326
0.87,-3.34,-9.19,-0.004363,-0.002182,0.001091,29.5,14.875,1.6875,2,2024-11-14,11:05:52.256040
0.88,-3.35,-9.16,0.003272,-0.002182,-0.001091,29.0625,15.25,1.6875,2,2024-11-14,11:05:52.425949
0.87,-3.35,-9.17,0.007636,0.0,-0.001091,28.6875,16.0,0.0625,2,2024-11-14,11:05:52.441940
0.88,-3.34,-9.19,-0.007636,0.003272,-0.001091,28.375,14.5,0.5625,2,2024-11-14,11:05:52.629003
0.89,-3.33,-9.19,-0.003272,0.004363,0.0,28.375,14.875,2.0625,2,2024-11-14,11:05:52.828768
0.88,-3.35,-9.21,-0.004363,-0.002182,0.0,28.375,14.875,2.0625,2,2024-11-14,11:05:53.199588
0.88,-3.33,-9.19,0.0,-0.002182,0.001091,29.5,15.25,0.5625,2,2024-11-14,11:05:53.497058
0.89,-3.34,-9.2,-0.003272,0.0,0.002182,29.0625,15.6875,0.5,2,2024-11-14,11:05:53.700672
0.88,-3.35,-9.19,0.002182,-0.002182,0.001091,28.0,15.25,2.0625,2,2024-11-14,11:05:53.764619
0.88,-3.35,-9.19,0.002182,-0.003272,-0.001091,29.0625,14.875,0.875,2,2024-11-14,11:05:53.859358
0.89,-3.33,-9.19,-0.008727,0.0,-0.001091,28.6875,14.875,0.5625,2,2024-11-14,11:05:54.066254
0.87,-3.29,-9.19,-0.007636,0.006545,-0.002182,28.375,14.5,1.25,2,2024-11-14,11:05:54.269667
0.88,-3.26,-9.18,-0.001091,0.004363,-0.003272,28.375,14.875,0.5,2,2024-11-14,11:05:54.535994
0.88,-3.26,-9.19,-0.005454,0.003272,0.0,28.6875,15.25,1.25,2,2024-11-14,11:05:54.688916
0.87,-3.27,-9.2,0.0,0.001091,0.001091,29.0625,15.25,0.5625,2,2024-11-14,11:05:54.909949
0.89,-3.27,-9.19,-0.001091,0.001091,0.0,28.375,14.875,1.25,2,2024-11-14,11:05:55.146121
0.87,-3.27,-9.21,-0.002182,0.002182,0.001091,29.5,15.25,1.6875,2,2024-11-14,11:05:55.317025
0.88,-3.27,-9.19,0.001091,0.002182,-0.001091,28.375,14.1875,0.0625,2,2024-11-14,11:05:55.565394
0.87,-3.27,-9.2,-0.001091,0.0,0.001091,28.375,15.6875,0.875,2,2024-11-14,11:05:55.918436
0.86,-3.31,-9.18,0.003272,0.001091,0.001091,28.6875,14.875,0.875,2,2024-11-14,11:05:55.950416
0.87,-3.35,-9.19,0.0,0.002182,0.002182,28.375,15.25,0.875,2,2024-11-14,11:05:56.138309
0.88,-3.38,-9.2,0.003272,-0.002182,0.002182,28.6875,14.875,1.6875,2,2024-11-14,11:05:56.170294
0.86,-3.4,-9.18,0.002182,0.003272,0.0,29.0625,15.25,1.6875,2,2024-11-14,11:05:56.308213
0.88,-3.38,-9.19,0.003272,0.002182,0.001091,29.0625,15.25,1.25,2,2024-11-14,11:05:56.573458
0.88,-3.38,-9.18,-0.004363,0.0,-0.001091,28.6875,14.875,0.5,2,2024-11-14,11:05:56.932499
0.89,-3.44,-9.17,-0.004363,-0.002182,0.0,29.0625,15.25,0.875,2,2024-11-14,11:05:57.183356
0.88,-3.41,-9.19,-0.006545,-0.001091,0.0,28.6875,14.875,1.25,2,2024-11-14,11:05:57.383554
0.91,-3.37,-9.18,-0.002182,-0.002182,0.0,29.0625,15.6875,0.0625,2,2024-11-14,11:05:57.432155
0.91,-3.33,-9.17,0.003272,0.001091,-0.001091,29.0625,14.1875,0.875,2,2024-11-14,11:05:57.575073
0.89,-3.38,-9.19,-0.001091,-0.004363,-0.001091,28.0,14.875,0.0625,2,2024-11-14,11:05:57.760965
0.88,-3.35,-9.21,-0.003272,-0.002182,-0.001091,29.0625,15.25,1.6875,2,2024-11-14,11:05:57.948451
0.9,-3.33,-9.15,-0.017453,-0.002182,-0.001091,29.0625,14.875,1.25,2,2024-11-14,11:05:58.197310
0.9,-3.28,-9.18,-0.010908,0.003272,-0.001091,29.0625,14.5,1.25,2,2024-11-14,11:05:58.510151
0.91,-3.28,-9.17,-0.022907,0.0,-0.001091,28.375,14.1875,0.875,2,2024-11-14,11:05:58.663738
0.89,-3.22,-9.22,-0.001091,0.002182,0.002182,28.75,14.5,1.75,2,2024-11-14,11:05:58.943847
0.89,-3.25,-9.22,-0.002182,-0.001091,0.001091,29.0625,14.875,0.875,2,2024-11-14,11:05:59.179436
0.9,-3.16,-9.18,-0.010908,0.004363,0.0,28.375,14.875,2.0625,2,2024-11-14,11:05:59.431902
0.88,-3.19,-9.21,0.006545,-0.001091,0.002182,29.5,14.875,1.75,2,2024-11-14,11:05:59.463696
0.91,-3.19,-9.19,-0.004363,0.004363,0.0,29.5,14.875,0.875,2,2024-11-14,11:05:59.635569
0.89,-3.18,-9.24,-0.005454,0.002182,-0.001091,30.1875,14.875,0.75,2,2024-11-14,11:05:59.884550
0.93,-3.18,-9.26,-0.004363,0.001091,-0.003272,29.875,14.5,0.875,2,2024-11-14,11:05:59.996086
0.98,-3.25,-9.25,-0.03927,0.008727,-0.007636,29.0625,14.5,2.5,2,2024-11-14,11:06:00.217986
0.95,-3.25,-9.23,0.032725,0.008727,0.0,29.5,15.25,0.875,2,2024-11-14,11:06:00.500046
0.92,-3.27,-9.2,-0.005454,0.004363,-0.001091,28.375,15.25,0.875,2,2024-11-14,11:06:00.637680
0.95,-3.2,-9.24,0.005454,0.001091,-0.004363,28.375,15.25,1.25,2,2024-11-14,11:06:00.852561
0.97,-3.21,-9.22,-0.002182,0.0,0.002182,28.6875,14.5,1.25,2,2024-11-14,11:06:01.053732
0.94,-3.22,-9.21,0.0,-0.002182,0.002182,29.5,14.875,1.25,2,2024-11-14,11:06:01.366554
0.93,-3.23,-9.2,-0.001091,0.002182,-0.001091,28.75,15.25,1.75,2,2024-11-14,11:06:01.568767
0.94,-3.22,-9.18,-0.001091,0.003272,0.0,28.375,14.875,0.5625,2,2024-11-14,11:06:01.583759
0.97,-3.21,-9.22,-0.005454,-0.004363,0.0,29.0625,15.25,1.75,2,2024-11-14,11:06:01.819015
0.96,-3.21,-9.2,-0.005454,-0.004363,-0.001091,28.375,14.875,2.0625,2,2024-11-14,11:06:02.084386
0.97,-3.22,-9.2,0.008727,-0.001091,0.0,28.6875,14.875,1.75,2,2024-11-14,11:06:02.318024
0.94,-3.17,-9.21,-0.011999,0.008727,0.0,29.0625,14.5,2.0625,2,2024-11-14,11:06:02.613671
0.96,-3.15,-9.2,-0.006545,0.001091,-0.001091,28.6875,14.5,0.875,2,2024-11-14,11:06:02.799565
0.97,-3.12,-9.2,-0.009817,0.011999,-0.002182,27.6875,14.1875,0.5625,2,2024-11-14,11:06:02.799565
0.98,-3.15,-9.22,0.003272,0.003272,-0.001091,29.0625,15.25,2.875,2,2024-11-14,11:06:02.973604
0.98,-3.15,-9.2,-0.001091,-0.005454,0.0,28.75,15.6875,0.875,2,2024-11-14,11:06:03.175468
0.99,-3.17,-9.22,0.003272,-0.006545,0.0,29.0625,14.875,0.0625,2,2024-11-14,11:06:03.483796
0.98,-3.22,-9.19,-0.002182,-0.004363,0.0,29.0625,15.25,0.875,2,2024-11-14,11:06:03.716696
0.98,-3.17,-9.19,-0.004363,0.002182,0.004363,29.0625,14.5,2.0625,2,2024-11-14,11:06:03.887615
1.0,-3.14,-9.17,0.007636,0.005454,0.0,28.0,14.1875,2.0625,2,2024-11-14,11:06:04.121631
1.0,-3.18,-9.2,-0.005454,-0.006545,0.0,29.0625,15.25,0.5625,2,2024-11-14,11:06:04.308817
1.02,-3.21,-9.19,0.009817,0.001091,0.001091,28.75,15.25,0.5625,2,2024-11-14,11:06:04.512214
0.98,-3.2,-9.19,-0.005454,0.005454,-0.004363,28.6875,15.6875,2.875,2,2024-11-14,11:06:04.805493
1.0,-3.2,-9.18,-0.007636,-0.008727,0.002182,29.5,14.875,0.0625,2,2024-11-14,11:06:05.085326
1.02,-3.24,-9.17,0.001091,0.003272,-0.002182,28.75,14.875,2.5,2,2024-11-14,11:06:05.256595
1.02,-3.26,-9.18,0.016362,-0.001091,-0.002182,28.75,14.5,0.5625,2,2024-11-14,11:06:05.288576
1.0,-3.28,-9.17,0.021817,0.0,-0.009817,29.5,14.5,1.25,2,2024-11-14,11:06:05.445046
1.03,-3.26,-9.15,-0.006545,-0.010908,0.0,28.75,15.25,2.5,2,2024-11-14,11:06:05.648443
0.99,-3.25,-9.2,-0.015272,-0.005454,-0.001091,29.875,15.25,2.5,2,2024-11-14,11:06:05.832202
0.98,-3.26,-9.18,-0.016362,0.001091,0.0,28.75,14.875,1.25,2,2024-11-14,11:06:06.064104
0.98,-3.23,-9.18,-0.006545,-0.005454,0.002182,28.375,15.25,0.875,2,2024-11-14,11:06:06.270211
1.0,-3.21,-9.18,-0.005454,0.0,-0.001091,29.875,14.875,2.0625,2,2024-11-14,11:06:06.439131
1.01,-3.21,-9.16,-0.014181,-0.003272,-0.004363,29.0625,14.875,2.5,2,2024-11-14,11:06:06.688081
0.98,-3.2,-9.2,-0.008727,-0.001091,0.001091,28.75,14.875,1.75,2,2024-11-14,11:06:06.886735
0.98,-3.25,-9.17,0.004363,-0.004363,0.002182,28.75,14.875,1.75,2,2024-11-14,11:06:07.060650
0.97,-3.23,-9.18,0.009817,-0.002182,0.002182,29.5,14.5,1.25,2,2024-11-14,11:06:07.278439
0.95,-3.24,-9.18,0.018544,-0.005454,0.004363,28.375,15.25,0.5625,2,2024-11-14,11:06:07.496322
0.97,-3.27,-9.16,0.011999,-0.009817,0.004363,28.75,15.25,1.25,2,2024-11-14,11:06:07.698198
0.95,-3.3,-9.19,0.001091,-0.004363,0.005454,28.375,14.875,0.875,2,2024-11-14,11:06:08.073071
0.96,-3.32,-9.19,0.001091,-0.002182,0.003272,28.375,15.6875,0.875,2,2024-11-14,11:06:08.385134
0.93,-3.31,-9.17,0.002182,0.009817,-0.003272,28.375,15.25,0.875,2,2024-11-14,11:06:08.493073
0.94,-3.27,-9.19,0.003272,0.002182,0.001091,28.75,15.25,1.75,2,2024-11-14,11:06:08.493073
0.97,-3.29,-9.17,0.001091,0.005454,0.002182,29.5,14.875,0.5625,2,2024-11-14,11:06:08.742928
0.96,-3.27,-9.16,-0.006545,0.011999,0.001091,28.75,15.25,1.25,2,2024-11-14,11:06:08.948046
0.98,-3.28,-9.17,0.004363,0.001091,0.002182,28.375,16.0,1.25,2,2024-11-14,11:06:09.149002
0.96,-3.19,-9.15,-0.006545,0.002182,0.0,29.0625,15.25,0.875,2,2024-11-14,11:06:09.460202
0.98,-3.2,-9.18,-0.004363,-0.004363,0.003272,28.75,15.25,2.0625,2,2024-11-14,11:06:09.632087
0.96,-3.22,-9.18,0.002182,0.003272,0.0,29.0625,14.875,2.0625,2,2024-11-14,11:06:09.850822
0.97,-3.18,-9.18,0.003272,0.004363,-0.001091,29.0625,14.875,1.75,2,2024-11-14,11:06:09.897796
0.96,-3.2,-9.2,-0.001091,0.0,-0.002182,28.75,14.875,1.75,2,2024-11-14,11:06:10.082673
0.98,-3.21,-9.18,0.0,0.002182,-0.001091,28.375,14.1875,0.875,2,2024-11-14,11:06:10.238589
0.97,-3.19,-9.16,0.005454,0.002182,-0.002182,29.0625,15.6875,1.25,2,2024-11-14,11:06:10.482486
0.93,-3.24,-9.18,0.005454,0.001091,0.0,29.5,14.875,0.5625,2,2024-11-14,11:06:10.842663
0.96,-3.27,-9.21,-0.006545,0.003272,-0.001091,29.0625,15.25,1.25,2,2024-11-14,11:06:10.873628
0.95,-3.27,-9.18,-0.008727,0.003272,-0.001091,29.875,15.25,2.5,2,2024-11-14,11:06:11.313376
0.93,-3.29,-9.18,-0.004363,0.003272,0.0,28.75,15.25,0.875,2,2024-11-14,11:06:11.485793
0.94,-3.27,-9.19,-0.001091,0.001091,0.0,29.5,14.1875,0.5625,2,2024-11-14,11:06:11.547756
0.95,-3.27,-9.19,0.005454,0.001091,-0.001091,28.75,14.5,0.875,2,2024-11-14,11:06:11.731710
0.95,-3.27,-9.16,0.002182,-0.002182,-0.001091,28.375,14.5,1.75,2,2024-11-14,11:06:11.888034
0.93,-3.27,-9.21,0.002182,0.003272,0.0,29.0625,14.875,2.5,2,2024-11-14,11:06:12.093930
0.95,-3.28,-9.16,0.010908,0.007636,0.001091,29.5,14.875,0.875,2,2024-11-14,11:06:12.312805
0.96,-3.27,-9.18,0.001091,0.003272,-0.001091,29.875,15.25,0.875,2,2024-11-14,11:06:12.544993
0.98,-3.25,-9.16,-0.006545,-0.005454,0.0,28.75,15.25,0.5625,2,2024-11-14,11:06:12.734427
0.96,-3.19,-9.18,-0.006545,-0.005454,-0.003272,28.375,14.5,0.875,2,2024-11-14,11:06:12.934644
0.98,-3.19,-9.2,0.003272,0.002182,-0.002182,28.75,14.875,0.875,2,2024-11-14,11:06:13.184544
0.95,-3.16,-9.19,-0.011999,-0.001091,0.0,28.375,15.25,1.25,2,2024-11-14,11:06:13.435564
0.96,-3.16,-9.19,0.001091,0.0,0.001091,29.5,14.875,1.75,2,2024-11-14,11:06:13.649513
0.97,-3.16,-9.21,-0.002182,-0.004363,0.001091,29.0625,14.5,2.5,2,2024-11-14,11:06:13.697486
0.96,-3.18,-9.18,-0.003272,-0.010908,0.0,28.375,15.25,2.0625,2,2024-11-14,11:06:13.867928
0.97,-3.22,-9.18,0.002182,0.005454,-0.001091,28.0,15.25,0.5625,2,2024-11-14,11:06:14.070775
0.94,-3.22,-9.19,0.001091,0.0,-0.001091,29.875,14.875,1.25,2,2024-11-14,11:06:14.364618
0.96,-3.21,-9.21,0.009817,0.003272,-0.003272,29.5,14.5,0.875,2,2024-11-14,11:06:15.104623
0.94,-3.24,-9.17,0.004363,0.001091,-0.002182,28.75,15.25,2.0625,2,2024-11-14,11:06:17.037008
0.93,-3.22,-9.2,0.005454,0.002182,0.0,28.75,15.6875,0.875,2,2024-11-14,11:06:17.097876
0.96,-3.23,-9.18,0.0,0.001091,-0.002182,28.375,14.875,0.875,2,2024-11-14,11:06:17.145833
0.96,-3.21,-9.2,0.0,-0.001091,0.002182,28.0,16.0,2.0625,2,2024-11-14,11:06:17.161839
0.96,-3.22,-9.17,0.001091,-0.001091,0.002182,28.375,15.25,2.0625,2,2024-11-14,11:06:17.161839
0.98,-3.24,-9.18,0.004363,-0.001091,-0.001091,28.75,15.6875,2.0625,2,2024-11-14,11:06:17.207795
0.93,-3.27,-9.15,-0.002182,-0.005454,0.002182,29.5,14.875,1.25,2,2024-11-14,11:06:17.223803
0.98,-3.25,-9.18,0.005454,-0.001091,0.0,29.0625,14.875,2.0625,2,2024-11-14,11:06:17.254785
0.97,-3.26,-9.18,0.003272,-0.001091,0.001091,28.75,14.875,1.75,2,2024-11-14,11:06:17.301758
0.95,-3.23,-9.17,-0.001091,0.003272,-0.001091,29.5,14.875,2.0625,2,2024-11-14,11:06:17.333740
0.93,-3.25,-9.18,-0.003272,0.001091,-0.002182,28.375,14.5,2.0625,2,2024-11-14,11:06:17.397704
0.95,-3.28,-9.19,0.0,0.002182,-0.001091,28.375,14.875,0.875,2,2024-11-14,11:06:17.460652
0.95,-3.27,-9.21,-0.006545,0.004363,-0.002182,28.0,14.5,1.75,2,2024-11-14,11:06:17.491634
0.94,-3.28,-9.17,0.004363,-0.001091,0.0,28.375,14.1875,2.875,2,2024-11-14,11:06:17.552615
0.94,-3.25,-9.16,0.003272,0.0,-0.001091,29.5,15.25,1.25,2,2024-11-14,11:06:18.417904
